MORPHOLOGY AT STRAIN =    1.0000  FOR PHASE  1
   0.616   2.692   0.595  <-- AXES OF PHASE ELLIPSOID
   89.99   90.00   -0.00  <-- EULER ANGLES OF PHASE ELLIPSOID (deg)
   0.726   2.773   0.513  <-- AVERAGE OF GRAIN AXES FOR PHASE
   0.141   0.210   0.182  <-- STANDARD DEV OF AVG GRAIN AXES FOR PHASE
B       500
  134.44   90.25 -174.52     0.002000       0.7296    2.0103    0.6768
  141.52   87.83  172.11     0.002000       0.8043    2.5496    0.4807
   77.90   89.97   -8.58     0.002000       0.8591    2.8424    0.4019
  121.33   88.70    7.40     0.002000       0.8665    2.7697    0.4089
   78.54   90.19    0.17     0.002000       0.5806    3.5559    0.4724
   93.76   89.57   -0.84     0.002000       0.5388    3.4603    0.5239
 -137.66   91.51 -172.07     0.002000       0.8332    2.6729    0.4417
  124.83   89.84   -0.85     0.002000       0.6357    3.5381    0.4334
  116.30   91.88   -2.46     0.002000       0.7390    1.9260    0.6979
 -177.35   93.73 -175.28     0.002000       0.7390    2.0755    0.6466
   60.96   89.50   -1.21     0.002000       0.6054    3.5239    0.4572
  110.16   90.47    0.66     0.002000       0.5424    3.4595    0.5205
 -140.03   94.74  177.20     0.002000       0.7547    2.0388    0.6447
  164.50   90.61 -171.61     0.002000       0.8555    2.7905    0.4114
 -167.20   90.65 -171.62     0.002000       0.8217    2.6537    0.4515
  168.16   90.35  179.14     0.002000       0.5443    3.5372    0.5068
 -139.76   90.29  178.91     0.002000       0.5583    3.5036    0.4991
 -145.35   88.97  174.55     0.002000       0.8204    3.1569    0.3772
 -146.37   87.66  172.89     0.002000       0.7396    2.2165    0.6042
 -169.28   88.90  177.97     0.002000       0.7003    3.4185    0.4075
  172.68   87.59  172.71     0.002000       0.7453    2.2804    0.5823
   90.42   91.02   -6.88     0.002000       0.8688    3.0277    0.3718
  113.28   90.78    0.10     0.002000       0.5281    3.5335    0.5230
   90.02   90.13   -8.76     0.002000       0.8459    2.7610    0.4208
  139.35   89.07  179.30     0.002000       0.6879    3.4877    0.4063
  136.47   92.19 -172.27     0.002000       0.8033    2.5371    0.4838
  101.79   90.31    0.77     0.002000       0.5440    3.4572    0.5194
 -133.92   89.03 -174.34     0.002000       0.8396    3.1166    0.3734
   94.52   89.94   -1.10     0.002000       0.5554    3.4874    0.5041
   83.22   94.93    1.60     0.002000       0.7697    2.0127    0.6405
  137.31   89.14  179.06     0.002000       0.6163    3.5101    0.4509
   87.11   93.89    4.05     0.002000       0.7500    2.0195    0.6552
   55.63   94.14   -5.18     0.002000       0.7537    2.1543    0.6103
  137.84   89.87 -176.00     0.002000       0.6994    3.3456    0.4175
   69.85   93.44   -4.36     0.002000       0.7406    2.0276    0.6608
   78.78   92.57   -7.18     0.002000       0.7490    2.2475    0.5881
  106.50   88.64   -7.87     0.002000       0.7461    2.2695    0.5846
  175.79   91.01 -177.08     0.002000       0.7442    3.3348    0.3932
   92.00   89.18   -6.79     0.002000       0.8496    3.0684    0.3752
  104.33   89.98    0.47     0.002000       0.5799    3.5599    0.4724
  165.67   84.57 -178.82     0.002000       0.7917    2.0948    0.5976
   56.95   89.76   -1.04     0.002000       0.5340    3.5222    0.5190
  117.36   90.39    4.18     0.002000       0.7170    3.3342    0.4086
   58.94   87.24    2.33     0.002000       0.7346    1.9392    0.6972
 -146.33   91.53  171.83     0.002000       0.8224    2.6392    0.4536
 -144.81   90.49 -176.63     0.002000       0.8132    3.2242    0.3722
 -165.71   93.50 -176.91     0.002000       0.8499    2.3477    0.4946
  125.42   85.10    3.74     0.002000       0.8044    2.2054    0.5579
   69.59   85.79   -2.65     0.002000       0.8406    2.2897    0.5133
 -163.77   92.06  173.47     0.002000       0.8341    2.5848    0.4566
 -167.56   91.11  177.76     0.002000       0.6593    3.4284    0.4318
   97.19   88.99    1.60     0.002000       0.6506    3.4870    0.4300
 -138.19   85.80  179.15     0.002000       0.7503    1.9621    0.6744
   83.89   89.51    2.39     0.002000       0.6364    3.4732    0.4416
   79.01   88.82    0.42     0.002000       0.7317    1.9040    0.7132
 -137.84   89.03  171.80     0.002000       0.8654    2.8379    0.3995
  118.64   89.47    8.71     0.002000       0.7931    2.5546    0.4868
   90.73   85.52    4.07     0.002000       0.8144    2.2726    0.5342
   98.06   90.55   -0.25     0.002000       0.5393    3.4443    0.5259
   50.69   89.97   -1.11     0.002000       0.5889    3.5177    0.4710
   69.09   89.97    1.12     0.002000       0.5483    3.4858    0.5109
  125.61   89.62    8.71     0.002000       0.8072    2.6040    0.4688
   78.07   95.38    1.47     0.002000       0.7946    2.0933    0.5959
   64.27   89.57   -1.06     0.002000       0.5485    3.5175    0.5059
  125.64   95.11   -0.74     0.002000       0.8211    2.1737    0.5545
  142.23   88.53 -176.56     0.002000       0.7324    1.9395    0.6992
  106.22   89.06   -8.64     0.002000       0.8257    2.6682    0.4467
   91.11   88.50    1.79     0.002000       0.7366    1.9131    0.7050
  154.47   88.94  175.75     0.002000       0.7826    3.2433    0.3846
 -151.74   87.53 -174.26     0.002000       0.7296    2.0887    0.6508
  172.81   90.84  174.61     0.002000       0.7817    3.1873    0.3924
  118.63   90.17    0.31     0.002000       0.5666    3.5516    0.4848
 -170.90   90.17 -179.64     0.002000       0.5602    3.5375    0.4923
   48.90   90.94   -2.72     0.002000       0.7495    3.3634    0.3869
  121.73   89.78    0.37     0.002000       0.5871    3.5473    0.4683
 -172.32   89.52  178.98     0.002000       0.5412    3.5021    0.5151
   91.78   88.70   -8.16     0.002000       0.8612    2.8022    0.4068
   72.50   89.47   -6.64     0.002000       0.7330    2.0961    0.6454
 -148.17   90.89  179.41     0.002000       0.6509    3.4951    0.4287
   94.51   89.92   -8.70     0.002000       0.7720    2.4702    0.5178
 -135.72   91.14  172.30     0.002000       0.8732    2.9226    0.3839
  150.20   89.90  178.85     0.002000       0.6085    3.5171    0.4558
   49.47   88.99   -4.10     0.002000       0.7470    3.2939    0.3969
  179.91   90.61  176.38     0.002000       0.6769    3.3636    0.4291
   94.27   89.60   -0.43     0.002000       0.5414    3.4378    0.5250
   94.38   90.88    2.03     0.002000       0.6574    3.4694    0.4278
 -168.68   87.43  174.18     0.002000       0.8348    2.5014    0.4719
   59.10   89.88   -1.15     0.002000       0.5923    3.5221    0.4676
  145.85   91.95 -175.10     0.002000       0.7289    2.0088    0.6779
 -175.49   94.27  174.89     0.002000       0.7604    2.1716    0.5999
   76.40   90.47   -0.09     0.002000       0.7025    3.5143    0.3946
 -171.39   88.90 -178.54     0.002000       0.6621    3.4506    0.4271
  141.60   89.89 -179.68     0.002000       0.5415    3.5550    0.5068
  134.25   92.49   -4.10     0.002000       0.7384    1.9748    0.6809
   58.31   89.76   -1.05     0.002000       0.5398    3.4900    0.5183
   97.34   89.64    8.78     0.002000       0.8087    2.6121    0.4664
 -164.20   86.34  174.70     0.002000       0.7398    2.0975    0.6390
 -139.22   91.07  171.92     0.002000       0.8691    2.8661    0.3937
  112.83   93.34    5.26     0.002000       0.7431    2.0682    0.6454
 -159.51   89.58  179.57     0.002000       0.6032    3.5235    0.4589
   83.85   85.41   -3.94     0.002000       0.7615    2.0674    0.6300
   98.41   90.74   -0.70     0.002000       0.5382    3.4854    0.5206
   78.77   93.85    5.40     0.002000       0.7516    2.1049    0.6267
   62.26   94.19    5.62     0.002000       0.7652    2.1847    0.5924
  101.48   89.50   -0.50     0.002000       0.5423    3.4440    0.5230
  142.39   91.18 -174.36     0.002000       0.8879    2.7362    0.4038
  142.18   89.50  179.84     0.002000       0.6494    3.5224    0.4262
   63.18   89.98    2.32     0.002000       0.7303    1.9134    0.7110
  131.05   92.57 -175.32     0.002000       0.7340    2.0091    0.6730
 -171.62   91.11 -175.87     0.002000       0.7424    3.2712    0.4023
   99.90   91.52    8.39     0.002000       0.8092    2.5937    0.4695
 -160.48   91.15 -171.79     0.002000       0.7750    2.4879    0.5119
  101.78   86.90   -1.20     0.002000       0.7453    1.9311    0.6902
 -176.79   90.49 -172.90     0.002000       0.7289    2.1840    0.6224
   68.32   89.67   -2.71     0.002000       0.6474    3.4535    0.4366
   71.33   86.06   -1.09     0.002000       0.7516    1.9539    0.6761
 -132.83   91.04  173.03     0.002000       0.7303    2.1463    0.6323
 -144.32   93.26  174.32     0.002000       0.7366    2.1159    0.6361
   80.54   90.90   -7.45     0.002000       0.8673    2.9821    0.3785
  108.06   90.70   -5.11     0.002000       0.8306    3.1475    0.3735
  127.28   89.90    0.28     0.002000       0.5658    3.5533    0.4852
   98.52   89.95   -0.84     0.002000       0.5446    3.4539    0.5193
  138.53   90.71  176.59     0.002000       0.7719    3.3058    0.3823
  130.14   88.03    5.28     0.002000       0.7348    2.0129    0.6711
  117.59   90.66    8.16     0.002000       0.8682    2.9000    0.3893
  175.87   87.73  174.04     0.002000       0.8416    2.5528    0.4583
   95.74   90.19   -0.51     0.002000       0.5427    3.4386    0.5236
   81.50   93.50    4.11     0.002000       0.7461    2.0030    0.6642
   84.06   88.33    0.32     0.002000       0.7356    1.9072    0.7082
   72.69   89.99    1.00     0.002000       0.6274    3.5391    0.4391
   98.97   90.30    1.07     0.002000       0.5670    3.5260    0.4881
   84.96   88.50   -8.03     0.002000       0.8467    2.7254    0.4259
 -133.23   90.58  179.32     0.002000       0.5377    3.5359    0.5133
 -153.46   94.79 -177.54     0.002000       0.8143    2.2070    0.5505
   86.64   94.51   -4.52     0.002000       0.7994    2.2502    0.5499
   63.66   88.40    6.57     0.002000       0.7322    2.1078    0.6425
 -177.63   89.62  179.91     0.002000       0.7007    3.4833    0.3993
 -162.94   88.90  172.58     0.002000       0.8700    2.9482    0.3818
   88.37   90.18    0.12     0.002000       0.5786    3.5588    0.4737
  157.15   93.63 -173.97     0.002000       0.7527    2.2190    0.5928
 -137.35   90.71 -171.55     0.002000       0.8336    2.7018    0.4367
 -154.13   85.77  176.21     0.002000       0.8212    2.2843    0.5268
   94.48   89.97   -1.03     0.002000       0.6732    3.5342    0.4096
  171.44   90.98 -176.15     0.002000       0.7141    3.3100    0.4133
  131.62   89.30   -0.49     0.002000       0.6053    3.5278    0.4568
  151.44   94.69 -176.47     0.002000       0.7581    2.0842    0.6275
   85.90   93.37    6.90     0.002000       0.7644    2.2794    0.5678
   95.51   89.91   -1.26     0.002000       0.6159    3.5309    0.4485
   95.97   89.86   -0.20     0.002000       0.5424    3.4288    0.5253
   83.50   85.01    3.78     0.002000       0.7770    2.1309    0.5985
  128.20   85.26   -1.17     0.002000       0.7601    1.9910    0.6559
  125.54   85.37    1.13     0.002000       0.7611    1.9809    0.6584
 -170.20   89.13  176.79     0.002000       0.6737    3.3807    0.4288
   94.79   90.92    8.65     0.002000       0.8056    2.5960    0.4712
   96.10   90.64    0.38     0.002000       0.6281    3.5328    0.4394
 -161.56   91.10  173.49     0.002000       0.8493    3.0572    0.3767
  145.64   94.80 -177.54     0.002000       0.8138    2.2119    0.5496
  131.78   89.12   -6.97     0.002000       0.8521    3.0435    0.3773
  146.32   89.56 -179.00     0.002000       0.5453    3.5170    0.5090
  166.38   89.51 -179.29     0.002000       0.7261    3.4526    0.3887
  152.11   92.62 -172.59     0.002000       0.7793    2.4306    0.5214
   55.58   90.59    5.51     0.002000       0.8748    2.9870    0.3741
   85.95   87.14   -7.20     0.002000       0.7547    2.2623    0.5797
  106.65   92.77    2.29     0.002000       0.7421    1.9375    0.6908
  114.97   88.56   -8.22     0.002000       0.7571    2.3645    0.5523
   56.68   93.70    1.24     0.002000       0.7473    1.9475    0.6823
   58.85   89.94    8.75     0.002000       0.8161    2.6403    0.4571
  136.25   89.13  179.36     0.002000       0.5379    3.5164    0.5160
   97.39   89.91    0.66     0.002000       0.5429    3.4430    0.5227
  157.81   90.93  172.78     0.002000       0.7325    2.1809    0.6202
  110.15   89.01    8.64     0.002000       0.7946    2.5566    0.4854
   47.85   90.75   -1.04     0.002000       0.6110    3.5076    0.4552
   96.69   89.96    1.11     0.002000       0.6650    3.5372    0.4143
   74.05   89.62   -0.26     0.002000       0.7015    3.5168    0.3948
  159.87   94.82  179.54     0.002000       0.8274    2.2022    0.5429
  111.50   91.26   -7.83     0.002000       0.8640    2.7938    0.4066
  163.64   94.81 -179.40     0.002000       0.7604    2.0008    0.6523
   73.56   91.45   -7.92     0.002000       0.8542    2.7544    0.4175
   98.35   88.92   -8.60     0.002000       0.8165    2.6345    0.4578
 -145.24   89.37  179.53     0.002000       0.6491    3.5080    0.4282
   64.32   94.17    1.84     0.002000       0.8483    2.2878    0.5089
  108.47   90.30   -1.11     0.002000       0.5510    3.4983    0.5065
   93.66   91.60   -8.39     0.002000       0.7922    2.5348    0.4911
   94.26   91.94    3.62     0.002000       0.7385    1.9476    0.6905
  156.99   90.26 -173.39     0.002000       0.7271    2.1104    0.6462
   55.90   94.75    2.61     0.002000       0.8223    2.2268    0.5401
  126.09   90.64    8.62     0.002000       0.7829    2.5139    0.5014
  178.29   89.63 -171.52     0.002000       0.8475    2.7559    0.4208
   53.34   88.78   -8.31     0.002000       0.8298    2.6793    0.4425
  112.40   89.20    3.17     0.002000       0.6881    3.4005    0.4172
  165.62   91.48 -171.89     0.002000       0.7950    2.5477    0.4868
   85.21   93.22   -0.19     0.002000       0.7466    1.9312    0.6889
 -136.00   84.81 -178.36     0.002000       0.7710    2.0545    0.6260
   97.55   89.76   -0.85     0.002000       0.5451    3.4572    0.5183
  141.29   91.20 -177.49     0.002000       0.7124    3.3966    0.4032
  159.48   89.92  178.84     0.002000       0.5860    3.5112    0.4743
   57.01   90.01   -0.76     0.002000       0.6254    3.5397    0.4404
  128.94   89.70    1.09     0.002000       0.5541    3.5044    0.5028
  163.57   88.45  171.79     0.002000       0.8163    2.6166    0.4611
 -178.41   94.28 -175.91     0.002000       0.8057    2.2673    0.5413
 -179.17   90.95  178.41     0.002000       0.7024    3.4381    0.4038
   85.64   86.19    1.29     0.002000       0.7500    1.9505    0.6789
 -170.56   85.89 -174.62     0.002000       0.7541    2.1794    0.6027
  157.18   89.84 -179.58     0.002000       0.5398    3.5513    0.5089
   81.72   90.03   -0.23     0.002000       0.5679    3.5611    0.4823
 -170.72   91.02  171.82     0.002000       0.8638    2.8283    0.4017
 -143.81   91.12  177.37     0.002000       0.7294    3.3839    0.3952
  168.31   89.94 -179.11     0.002000       0.6619    3.5061    0.4201
  160.21   90.83 -179.40     0.002000       0.6321    3.4944    0.4416
  171.18   94.10  178.79     0.002000       0.7475    1.9642    0.6762
  160.16   86.50 -173.54     0.002000       0.7863    2.3526    0.5342
   99.58   91.01   -3.15     0.002000       0.7461    3.3711    0.3878
 -143.16   89.80 -171.60     0.002000       0.8591    2.8401    0.4022
  102.50   89.50    0.95     0.002000       0.5395    3.4740    0.5211
   91.26   90.00    0.90     0.002000       0.5447    3.4591    0.5184
   93.40   89.17    2.10     0.002000       0.7442    3.4159    0.3834
 -155.61   84.93  179.17     0.002000       0.7654    2.0136    0.6438
   89.46   89.44    5.90     0.002000       0.8066    3.1735    0.3819
  155.04   89.90  174.54     0.002000       0.7624    3.2190    0.3984
   82.95   88.89    2.79     0.002000       0.6874    3.4161    0.4156
  163.08   90.32  171.37     0.002000       0.8177    2.6395    0.4563
 -161.42   90.15  179.10     0.002000       0.5910    3.5256    0.4682
 -170.22   85.19 -177.30     0.002000       0.7558    2.0394    0.6436
 -143.56   93.96 -175.34     0.002000       0.7466    2.0734    0.6407
   93.36   88.92   -0.04     0.002000       0.5388    3.4813    0.5206
   96.98   89.13    8.55     0.002000       0.8536    2.7775    0.4143
   57.15   89.66   -0.32     0.002000       0.6988    3.5112    0.3971
  120.17   90.03   -3.88     0.002000       0.6948    3.3732    0.4167
  137.53   91.87   -7.99     0.002000       0.7574    2.3542    0.5545
   96.13   89.98   -0.31     0.002000       0.5422    3.4304    0.5253
 -161.66   90.51  179.15     0.002000       0.5456    3.5271    0.5072
  142.31   90.17  179.52     0.002000       0.5779    3.5457    0.4760
   82.89   90.22   -1.09     0.002000       0.5628    3.5046    0.4949
 -173.59   92.73  174.10     0.002000       0.7322    2.1061    0.6430
   80.73   89.22    8.68     0.002000       0.8046    2.5963    0.4717
 -145.56   89.62  178.93     0.002000       0.5483    3.5231    0.5053
  129.68   90.17   -1.33     0.002000       0.5949    3.5265    0.4650
   46.93   89.12    1.22     0.002000       0.6143    3.5009    0.4537
   94.63   89.46   -1.99     0.002000       0.6264    3.4983    0.4453
   64.04   89.55    0.96     0.002000       0.5446    3.4778    0.5156
  108.05   89.77    1.14     0.002000       0.5613    3.5037    0.4964
  112.83   90.98   -6.74     0.002000       0.8815    2.8179    0.3946
   86.55   91.74   -8.14     0.002000       0.7619    2.3863    0.5436
 -152.61   89.97  178.85     0.002000       0.6353    3.5170    0.4365
   70.12   89.51    0.96     0.002000       0.5466    3.4805    0.5133
   75.10   90.69    8.38     0.002000       0.7533    2.3637    0.5553
   93.07   89.15   -8.60     0.002000       0.8448    2.7461    0.4237
  178.52   85.90  175.67     0.002000       0.7420    2.0607    0.6488
   57.82   87.56    3.68     0.002000       0.7318    1.9634    0.6911
 -163.44   90.17 -179.07     0.002000       0.5941    3.5188    0.4667
  171.04   89.92 -179.00     0.002000       0.5761    3.5089    0.4828
 -146.60   90.07 -178.95     0.002000       0.5815    3.5129    0.4777
 -168.50   90.90 -179.14     0.002000       0.6731    3.4711    0.4174
   46.87   90.46    0.01     0.002000       0.7024    3.4992    0.3964
  115.31   85.07    0.83     0.002000       0.7680    1.9976    0.6469
   58.42   91.78   -7.85     0.002000       0.7531    2.3429    0.5605
 -159.90   90.65 -174.53     0.002000       0.8771    2.9471    0.3784
   48.64   93.44    6.56     0.002000       0.7535    2.2185    0.5924
   93.10   87.19   -4.87     0.002000       0.7409    2.0162    0.6644
  117.31   95.33   -1.60     0.002000       0.7969    2.1008    0.5919
  170.53   90.87 -178.78     0.002000       0.6240    3.4794    0.4494
   93.40   89.64    1.15     0.002000       0.5706    3.5197    0.4859
   53.85   92.57   -7.45     0.002000       0.7597    2.3494    0.5540
   57.77   94.07   -5.09     0.002000       0.7994    2.3136    0.5344
  131.26   88.94    6.33     0.002000       0.8565    3.0690    0.3719
   87.00   87.56    4.50     0.002000       0.7372    1.9865    0.6779
   77.20   88.86   -1.91     0.002000       0.6916    3.4584    0.4077
  168.19   90.00  178.92     0.002000       0.6371    3.5107    0.4360
 -143.51   90.56 -178.80     0.002000       0.7328    3.4443    0.3861
   84.76   89.60    8.75     0.002000       0.8472    2.7586    0.4205
  136.09   84.89  178.06     0.002000       0.7675    2.0391    0.6338
  106.77   87.50    7.76     0.002000       0.7606    2.3405    0.5555
   96.42   89.12   -7.34     0.002000       0.7381    2.1714    0.6183
  108.55   85.65   -5.43     0.002000       0.7848    2.2529    0.5596
   96.55   88.40   -0.81     0.002000       0.7370    1.9079    0.7066
   69.64   84.56    0.92     0.002000       0.7924    2.0899    0.5985
  176.39   86.12  174.74     0.002000       0.8030    2.3333    0.5273
   54.97   90.81   -7.15     0.002000       0.8579    3.0134    0.3786
 -157.05   91.18  175.02     0.002000       0.7879    3.2096    0.3864
   56.63   92.37   -0.38     0.002000       0.7343    1.9167    0.7059
  122.77   93.15   -1.22     0.002000       0.7458    1.9341    0.6886
  150.63   85.41  179.24     0.002000       0.7545    1.9793    0.6647
  147.84   93.38 -174.87     0.002000       0.7376    2.0815    0.6460
  167.63   89.89 -179.27     0.002000       0.6323    3.5145    0.4388
  131.27   90.04   -0.75     0.002000       0.6079    3.5351    0.4538
   81.71   85.15    0.12     0.002000       0.7659    1.9913    0.6507
  108.66   88.93    5.92     0.002000       0.8431    3.1238    0.3710
  178.18   88.56  171.80     0.002000       0.8287    2.6608    0.4463
  179.47   88.68  171.94     0.002000       0.7531    2.3766    0.5523
   77.82   89.80    0.95     0.002000       0.5813    3.5420    0.4738
 -140.30   84.66  179.44     0.002000       0.7793    2.0495    0.6208
   87.30   93.47    5.36     0.002000       0.7462    2.0736    0.6410
 -154.05   90.23  171.36     0.002000       0.8189    2.6465    0.4543
   54.18   88.51   -7.47     0.002000       0.8476    2.7040    0.4288
   61.54   89.76   -0.84     0.002000       0.5787    3.5463    0.4754
 -145.82   86.83 -175.83     0.002000       0.7321    2.0131    0.6735
  170.55   91.38 -171.87     0.002000       0.7757    2.4816    0.5128
  117.98   90.74    8.44     0.002000       0.7584    2.3920    0.5449
  124.95   90.25    8.36     0.002000       0.8648    2.8858    0.3929
  143.49   86.05  176.55     0.002000       0.8368    2.3295    0.5066
   97.05   90.98   -1.34     0.002000       0.6718    3.4914    0.4157
  124.78   87.12    7.23     0.002000       0.7536    2.2617    0.5807
   84.93   90.74    5.35     0.002000       0.7952    3.2094    0.3829
  112.23   89.94    1.08     0.002000       0.6623    3.5352    0.4162
  100.11   89.24    0.42     0.002000       0.5387    3.4539    0.5250
  134.96   89.70  179.49     0.002000       0.6772    3.5220    0.4085
   79.03   89.27    0.50     0.002000       0.5399    3.4565    0.5234
  113.68   89.88    0.10     0.002000       0.5638    3.5593    0.4861
 -153.59   90.23 -175.96     0.002000       0.6960    3.3313    0.4215
   98.09   90.46   -0.14     0.002000       0.5409    3.4385    0.5253
   87.99   86.91    7.14     0.002000       0.7576    2.2804    0.5727
  126.33   84.63   -0.91     0.002000       0.7811    2.0508    0.6191
  119.02   95.35    1.16     0.002000       0.8002    2.1129    0.5860
  126.76   84.52   -0.36     0.002000       0.8044    2.1177    0.5816
  144.99   93.30  174.71     0.002000       0.8272    2.3915    0.4988
  100.53   90.01    0.26     0.002000       0.5653    3.5588    0.4849
  173.16   90.31  179.80     0.002000       0.6062    3.5231    0.4567
  108.74   89.34    8.72     0.002000       0.7974    2.5699    0.4811
  101.15   91.00   -3.30     0.002000       0.7170    3.3777    0.4030
 -169.50   89.87  178.90     0.002000       0.5987    3.5162    0.4634
  115.16   89.11   -8.23     0.002000       0.8677    2.8791    0.3925
  102.81   90.53    0.93     0.002000       0.5488    3.5043    0.5076
  145.77   90.25  179.56     0.002000       0.6110    3.5282    0.4524
  168.25   86.94  178.20     0.002000       0.7335    1.9376    0.6989
   79.97   89.93   -1.22     0.002000       0.6350    3.5329    0.4346
  122.24   89.47   -0.85     0.002000       0.5434    3.4703    0.5179
   66.85   84.91   -2.96     0.002000       0.8007    2.1647    0.5713
   53.74   90.84    8.45     0.002000       0.7614    2.4230    0.5356
   80.88   90.90    0.24     0.002000       0.5359    3.4758    0.5243
  140.36   89.03 -174.37     0.002000       0.8175    3.1458    0.3801
   88.65   89.00    7.67     0.002000       0.8717    2.9542    0.3803
  104.91   90.01   -0.93     0.002000       0.5400    3.4595    0.5229
 -139.36   90.02 -179.48     0.002000       0.5818    3.5370    0.4741
  177.74   88.97  173.41     0.002000       0.8809    2.8178    0.3948
  143.69   91.23 -177.03     0.002000       0.7089    3.3708    0.4085
  159.18   89.84  179.04     0.002000       0.5963    3.5226    0.4644
   96.66   88.98   -8.62     0.002000       0.8084    2.6073    0.4674
  116.84   90.19    2.61     0.002000       0.6409    3.4585    0.4404
  120.05   89.06    8.57     0.002000       0.8335    2.6918    0.4384
  153.40   93.34  174.19     0.002000       0.7437    2.1193    0.6290
 -158.29   88.78 -177.98     0.002000       0.6904    3.4180    0.4134
  105.55   90.74    7.54     0.002000       0.7379    2.1907    0.6129
  156.91   94.85 -179.84     0.002000       0.7629    2.0012    0.6500
   94.16   89.50    0.35     0.002000       0.6698    3.5367    0.4113
  136.19   91.05 -173.16     0.002000       0.8639    3.0223    0.3747
   71.50   95.12    2.87     0.002000       0.8020    2.1608    0.5714
  150.28   90.63 -179.27     0.002000       0.5412    3.4968    0.5159
  120.00   91.04    4.12     0.002000       0.7506    3.3002    0.3943
  179.29   86.91  174.91     0.002000       0.7316    2.0542    0.6601
   63.09   88.78   -3.93     0.002000       0.7333    1.9515    0.6940
   57.53   84.78    0.80     0.002000       0.8129    2.1631    0.5630
   59.93   86.89    4.19     0.002000       0.8508    2.4300    0.4769
   49.77   88.56   -0.68     0.002000       0.7285    1.9073    0.7151
   79.15   89.37    0.95     0.002000       0.5279    3.5158    0.5260
 -135.14   89.41 -179.70     0.002000       0.6082    3.5237    0.4551
   95.11   90.26   -0.33     0.002000       0.5424    3.4349    0.5244
  154.73   89.64 -177.85     0.002000       0.6200    3.4672    0.4541
  140.93   85.53    4.41     0.002000       0.7575    2.0806    0.6292
   63.70   87.69   -7.65     0.002000       0.8019    2.5224    0.4874
  164.80   89.58  171.37     0.002000       0.8201    2.6468    0.4536
  115.60   89.70   -0.89     0.002000       0.5385    3.4605    0.5241
   96.81   90.10   -0.86     0.002000       0.5420    3.5501    0.5071
   79.17   89.35   -0.32     0.002000       0.6968    3.5169    0.3976
   62.78   90.80   -7.78     0.002000       0.7414    2.2643    0.5897
   87.19   91.49    8.42     0.002000       0.7708    2.4467    0.5237
   80.63   89.80   -0.30     0.002000       0.7166    3.5118    0.3870
 -158.59   89.88  179.20     0.002000       0.6804    3.5033    0.4089
  118.25   85.51   -0.46     0.002000       0.8475    2.2616    0.5156
   45.87   90.24    1.07     0.002000       0.5734    3.5340    0.4815
 -138.31   89.53 -179.46     0.002000       0.5354    3.5372    0.5153
 -148.96   91.43  171.82     0.002000       0.8369    2.6906    0.4368
 -170.07   94.90  176.76     0.002000       0.7938    2.1774    0.5728
 -172.23   92.66 -175.50     0.002000       0.7291    2.0107    0.6771
 -156.67   90.42 -179.81     0.002000       0.6313    3.5154    0.4394
   78.93   89.15    3.91     0.002000       0.7931    3.2478    0.3789
  153.93   90.33 -179.15     0.002000       0.5647    3.5188    0.4911
  159.69   89.49 -175.44     0.002000       0.7304    3.2764    0.4085
  115.16   86.83   -7.04     0.002000       0.7594    2.2802    0.5715
  146.79   88.79 -171.65     0.002000       0.8222    2.6451    0.4527
 -173.11   88.95 -172.49     0.002000       0.8682    2.9243    0.3859
 -150.35   91.03 -173.49     0.002000       0.8592    3.0311    0.3755
   85.03   85.05   -2.03     0.002000       0.7687    2.0221    0.6383
   99.12   88.40    8.41     0.002000       0.7994    2.5609    0.4816
   81.65   91.76   -8.27     0.002000       0.7897    2.5213    0.4954
 -150.82   85.87  174.40     0.002000       0.7586    2.1826    0.5982
   94.33   89.50   -0.04     0.002000       0.5419    3.4344    0.5249
 -173.09   85.01 -179.18     0.002000       0.8215    2.1942    0.5489
 -143.69   88.14 -179.51     0.002000       0.7274    1.9106    0.7148
   70.43   92.72    7.09     0.002000       0.7474    2.2180    0.5974
  142.73   91.22 -176.98     0.002000       0.7090    3.3688    0.4087
   59.97   89.34    1.32     0.002000       0.6007    3.5141    0.4622
  132.83   90.26   -0.65     0.002000       0.6746    3.5186    0.4106
   69.05   90.01    0.71     0.002000       0.5805    3.5563    0.4724
 -152.24   94.96 -178.52     0.002000       0.7645    2.0202    0.6424
   73.26   89.92    0.13     0.002000       0.5573    3.5644    0.4911
  111.67   87.43    6.75     0.002000       0.7420    2.1517    0.6207
  176.07   94.29 -175.45     0.002000       0.7942    2.2608    0.5508
   69.54   84.91    2.91     0.002000       0.7711    2.0812    0.6178
 -161.40   84.79 -179.43     0.002000       0.7694    2.0299    0.6351
 -147.87   89.12  172.34     0.002000       0.7360    2.2461    0.5990
  156.86   89.00 -178.66     0.002000       0.6605    3.4654    0.4262
  124.34   90.74   -4.96     0.002000       0.8180    3.1781    0.3756
 -153.10   90.30  179.81     0.002000       0.6072    3.5332    0.4546
  136.15   88.98  171.44     0.002000       0.7827    2.5102    0.5022
 -165.96   88.91  171.64     0.002000       0.8418    2.7186    0.4296
   44.32   86.01   -4.72     0.002000       0.8121    2.3099    0.5268
  103.26   89.58   -0.96     0.002000       0.7533    3.4611    0.3735
  108.55   91.99   -8.07     0.002000       0.8056    2.5569    0.4785
  106.35   88.66    8.51     0.002000       0.7749    2.4715    0.5155
   98.73   94.55    4.28     0.002000       0.8056    2.2478    0.5462
  179.34   93.11  173.09     0.002000       0.7743    2.3597    0.5409
 -143.46   90.51  171.45     0.002000       0.8576    2.8101    0.4074
  176.05   90.10 -171.49     0.002000       0.8478    2.7593    0.4201
   95.56   89.10    0.10     0.002000       0.5327    3.4599    0.5300
 -138.34   90.08  179.94     0.002000       0.7293    3.4810    0.3837
  111.57   86.18   -6.15     0.002000       0.7592    2.2075    0.5909
  146.13   89.15  171.74     0.002000       0.8660    2.8663    0.3951
   95.54   90.97   -5.15     0.002000       0.8031    3.2124    0.3786
   90.34   94.71   -4.04     0.002000       0.7675    2.1059    0.6133
  100.48   90.02    0.64     0.002000       0.5420    3.4425    0.5236
 -179.00   94.70  177.05     0.002000       0.7565    2.0407    0.6426
  104.25   89.95   -1.05     0.002000       0.5502    3.4770    0.5105
   69.63   85.03    2.53     0.002000       0.7649    2.0452    0.6341
 -132.88   94.11  174.64     0.002000       0.7881    2.2925    0.5473
 -150.97   89.62 -173.23     0.002000       0.7271    2.1363    0.6382
 -152.36   89.50  174.97     0.002000       0.7488    3.2460    0.4022
  138.66   89.02  175.80     0.002000       0.7902    3.2377    0.3816
   61.91   91.05   -8.47     0.002000       0.7838    2.5192    0.4997
 -171.00   89.76 -173.72     0.002000       0.8070    3.1131    0.3894
  146.17   89.31  171.35     0.002000       0.8227    2.6542    0.4508
   54.36   91.19   -3.42     0.002000       0.7433    3.3408    0.3930
 -152.01   89.62  173.17     0.002000       0.7268    2.1275    0.6412
   80.21   92.72    7.29     0.002000       0.8019    2.4762    0.4968
 -155.33   88.97  173.19     0.002000       0.8770    2.7968    0.3997
  120.35   90.65   -8.70     0.002000       0.8151    2.6320    0.4591
  111.70   89.74   -1.13     0.002000       0.5338    3.4965    0.5232
 -157.11   89.00  177.64     0.002000       0.7257    1.9176    0.7139
  131.46   87.33   -4.24     0.002000       0.8685    2.4908    0.4553
  155.25   86.43 -173.52     0.002000       0.7587    2.2455    0.5810
 -142.98   90.41  179.01     0.002000       0.5629    3.5198    0.4925
  157.75   89.47 -178.97     0.002000       0.6021    3.5108    0.4616
 -163.09   89.57 -175.03     0.002000       0.7445    3.2415    0.4052
  153.13   92.62  172.67     0.002000       0.7955    2.4596    0.5044
 -142.18   90.12  171.87     0.002000       0.7448    2.3298    0.5701
   92.32   90.75    0.68     0.002000       0.5386    3.4848    0.5203
 -176.79   93.73 -174.04     0.002000       0.7591    2.2404    0.5821
  107.03   89.97    0.90     0.002000       0.6239    3.5456    0.4407
  123.60   90.34    5.32     0.002000       0.7731    3.2276    0.3917
   49.51   90.16    0.49     0.002000       0.5767    3.5456    0.4771
 -147.13   87.73 -174.45     0.002000       0.8460    2.5548    0.4555
   84.97   89.64   -0.29     0.002000       0.5813    3.5576    0.4716
   71.39   94.98   -1.10     0.002000       0.7679    2.0152    0.6412
 -139.83   87.26 -172.71     0.002000       0.7828    2.4410    0.5167
 -155.31   90.77 -172.30     0.002000       0.8646    2.9191    0.3883
  102.42   89.50   -8.52     0.002000       0.8621    2.8536    0.3988
   82.29   88.57   -6.91     0.002000       0.7370    2.1338    0.6303
   40.75   88.05   -1.46     0.002000       0.7313    1.9170    0.7086
 -145.66   90.54 -171.54     0.002000       0.8387    2.7221    0.4307
  168.44   89.99 -179.84     0.002000       0.5546    3.5436    0.4964
   74.13   90.03   -8.38     0.002000       0.7545    2.3733    0.5521
   65.71   91.12    7.99     0.002000       0.8707    2.8558    0.3943
   48.39   90.79    8.56     0.002000       0.8376    2.7125    0.4328
  144.78   89.23 -176.68     0.002000       0.6884    3.3747    0.4204
   70.74   88.35   -6.47     0.002000       0.7354    2.0986    0.6425
  164.15   85.09  176.11     0.002000       0.7792    2.1690    0.5860
   98.03   89.89   -0.94     0.002000       0.6807    3.5325    0.4052
  108.31   90.06    1.13     0.002000       0.5339    3.5182    0.5197
  152.27   92.65 -173.47     0.002000       0.8156    2.5038    0.4828
   87.81   87.72   -6.31     0.002000       0.8417    2.5697    0.4551
  108.09   92.57   -7.69     0.002000       0.7901    2.4594    0.5079
  164.39   86.24 -175.84     0.002000       0.7409    2.0247    0.6615
   84.61   90.21   -0.06     0.002000       0.5752    3.5579    0.4766
   99.50   91.18    8.29     0.002000       0.8598    2.7918    0.4090
 -140.64   85.96 -174.37     0.002000       0.7611    2.2257    0.5844
   88.85   89.97   -8.78     0.002000       0.8426    2.7468    0.4247
   90.34   89.40   -0.09     0.002000       0.6209    3.5451    0.4429
  179.97   94.50 -176.12     0.002000       0.7999    2.2367    0.5529
   69.62   90.25   -8.61     0.002000       0.7725    2.4778    0.5158
  147.57   89.06 -171.54     0.002000       0.7805    2.5062    0.5045
   98.12   88.48   -6.54     0.002000       0.7365    2.0957    0.6425
 -164.72   93.29 -176.14     0.002000       0.7345    2.0006    0.6755
  109.83   90.46    0.80     0.002000       0.5451    3.4715    0.5161
  167.65   91.39  171.79     0.002000       0.7672    2.4425    0.5271
  131.30   92.66    5.43     0.002000       0.8420    2.4995    0.4682
   72.18   90.08    0.27     0.002000       0.5654    3.5564    0.4851
  102.56   90.45   -1.01     0.002000       0.5402    3.4900    0.5179
 -177.25   92.85  174.68     0.002000       0.7317    2.0615    0.6577
   88.70   89.45   -1.02     0.002000       0.5462    3.5203    0.5077
  141.46   91.74 -171.87     0.002000       0.7749    2.4608    0.5178
   78.74   89.48    0.52     0.002000       0.5864    3.5438    0.4694
  130.38   90.06    0.35     0.002000       0.5960    3.5516    0.4607
  115.81   89.67   -0.05     0.002000       0.5894    3.5531    0.4657
  101.28   91.13   -7.80     0.002000       0.8735    2.8785    0.3898
   89.49   90.06   -0.64     0.002000       0.5514    3.5554    0.4976
 -171.80   92.74  176.79     0.002000       0.8773    2.4387    0.4605
 -146.44   90.12  179.71     0.002000       0.7380    3.4643    0.3810
  105.00   90.58    0.77     0.002000       0.5347    3.5271    0.5175
 -159.72   86.29 -176.12     0.002000       0.7362    2.0212    0.6669
  161.03   87.27 -177.80     0.002000       0.7350    1.9353    0.6983
   64.80   89.74    0.60     0.002000       0.6275    3.5458    0.4382
