MORPHOLOGY AT STRAIN =    1.0000  FOR PHASE  1
   0.616   2.692   0.594  <-- AXES OF PHASE ELLIPSOID
   90.05   90.00   -0.00  <-- EULER ANGLES OF PHASE ELLIPSOID (deg)
   0.774   2.879   0.480  <-- AVERAGE OF GRAIN AXES FOR PHASE
   0.181   0.274   0.235  <-- STANDARD DEV OF AVG GRAIN AXES FOR PHASE
B       500
  138.30   89.84 -167.45     0.002000       0.8227    1.8072    0.6691
  146.18   88.32  169.10     0.002000       0.9037    2.6789    0.4060
   77.60   89.94   -9.46     0.002000       0.8905    2.9495    0.3729
  117.99   88.86    8.72     0.002000       0.9043    2.9327    0.3689
   84.61   90.28    0.28     0.002000       0.5677    3.9469    0.4333
   98.17   89.59   -0.99     0.002000       0.5173    3.7387    0.5035
   44.56   88.63   -9.95     0.002000       0.9052    2.8040    0.3864
  122.76   89.69   -1.09     0.002000       0.6135    3.9583    0.3995
  117.35   94.22   -6.31     0.002000       0.8395    1.5625    0.7598
 -167.00   94.00 -168.19     0.002000       0.8320    1.9404    0.6153
   66.76   89.48   -1.65     0.002000       0.6185    3.8716    0.4057
  118.15   90.42    0.81     0.002000       0.5243    3.7360    0.4971
 -150.50   96.44  170.70     0.002000       0.8458    1.8210    0.6456
  164.85   90.61 -170.55     0.002000       0.8940    2.9016    0.3778
 -167.17   90.68 -169.60     0.002000       0.8966    2.7815    0.3936
  165.05   90.30  178.98     0.002000       0.5253    3.8923    0.4754
 -142.19   90.29  178.65     0.002000       0.5442    3.8202    0.4678
 -142.47   89.07  173.71     0.002000       0.8638    3.2697    0.3451
 -140.84   88.12  167.24     0.002000       0.8532    2.2354    0.5189
 -159.64   89.00  177.23     0.002000       0.7196    3.7252    0.3623
  178.95   88.25  167.52     0.002000       0.8686    2.3481    0.4845
   89.14   90.98   -7.42     0.002000       0.8843    3.1600    0.3492
  165.42   90.43 -179.25     0.002000       0.5033    3.8763    0.4984
   89.81   90.11  -10.09     0.002000       0.8937    2.8815    0.3807
  146.86   88.95  178.94     0.002000       0.6631    3.8983    0.3752
  141.85   91.63 -169.19     0.002000       0.9032    2.6664    0.4082
  106.79   90.28    0.88     0.002000       0.5259    3.7321    0.4962
 -136.90   89.15 -173.71     0.002000       0.8633    3.2682    0.3453
   95.34   89.95   -1.30     0.002000       0.5402    3.7857    0.4759
   86.25   98.08    4.94     0.002000       0.8694    1.7191    0.6657
  147.63   89.11  178.48     0.002000       0.6213    3.8582    0.4052
   95.59   95.12   10.86     0.002000       0.8386    1.7937    0.6613
 -135.98   86.27 -168.10     0.002000       0.8454    2.0948    0.5598
  137.06   89.87 -174.64     0.002000       0.8105    3.4102    0.3525
   58.17   93.81  -11.58     0.002000       0.8281    1.8287    0.6567
   71.81   91.87  -12.65     0.002000       0.8602    2.2846    0.5033
  110.00   89.06  -12.97     0.002000       0.8636    2.3339    0.4904
 -174.64   90.89 -176.40     0.002000       0.7656    3.6123    0.3513
   92.55   89.16   -7.44     0.002000       0.8778    3.1558    0.3524
  100.31   90.13    0.55     0.002000       0.5579    3.9488    0.4407
  163.69   82.10 -176.50     0.002000       0.8873    1.8497    0.6052
   51.90   89.66   -1.13     0.002000       0.5119    3.8515    0.4933
  119.08   90.32    5.50     0.002000       0.8199    3.3998    0.3495
 -134.05   94.44  172.30     0.002000       0.8320    1.6032    0.7470
 -148.53   91.32  169.54     0.002000       0.9034    2.7691    0.3924
 -140.73   90.59 -176.82     0.002000       0.7811    3.6051    0.3449
 -158.86   93.76 -173.77     0.002000       0.9045    2.2806    0.4786
  118.41   84.38    8.66     0.002000       0.8769    2.0845    0.5420
   74.51   85.07   -5.95     0.002000       0.9027    2.1683    0.5052
 -171.37   91.56  170.83     0.002000       0.9087    2.6989    0.4003
 -177.37   90.93  176.61     0.002000       0.7248    3.6417    0.3685
   89.03   89.04    2.34     0.002000       0.6809    3.7915    0.3763
 -140.60   81.95  178.67     0.002000       0.8594    1.6204    0.7152
   80.51   89.59    3.23     0.002000       0.6978    3.7150    0.3751
   66.69   87.49    1.74     0.002000       0.8280    1.5042    0.8006
 -137.98   88.99  170.93     0.002000       0.8985    2.9514    0.3691
  118.62   89.46   11.47     0.002000       0.8934    2.6924    0.4087
   82.17   85.37    8.73     0.002000       0.8824    2.2010    0.5092
  105.71   90.65   -0.19     0.002000       0.5178    3.7100    0.5070
   49.74   89.95   -1.51     0.002000       0.5769    3.8642    0.4359
   66.31   90.03    1.27     0.002000       0.5315    3.7823    0.4842
  125.97   89.56   11.10     0.002000       0.8949    2.7426    0.4003
   80.48   97.83    4.18     0.002000       0.8857    1.8437    0.6084
   63.15   89.54   -1.22     0.002000       0.5292    3.8448    0.4780
  125.58   97.01   -1.39     0.002000       0.9054    1.9526    0.5609
  144.00   86.80 -171.28     0.002000       0.8328    1.6067    0.7446
  106.89   89.13  -10.64     0.002000       0.8983    2.8006    0.3901
   88.31   86.79    4.57     0.002000       0.8348    1.5272    0.7820
  162.25   89.17  174.87     0.002000       0.8254    3.4281    0.3438
 -160.92   88.01 -167.26     0.002000       0.8262    1.9907    0.6037
  170.71   90.79  173.42     0.002000       0.8585    3.2244    0.3525
  123.82   90.19    0.49     0.002000       0.5606    3.9359    0.4401
 -165.19   90.23 -179.52     0.002000       0.5517    3.9128    0.4500
 -139.85   89.15 -176.80     0.002000       0.7496    3.6866    0.3513
  127.81   89.61    0.39     0.002000       0.5654    3.9369    0.4363
 -173.29   89.49  178.81     0.002000       0.5252    3.8143    0.4857
   92.84   88.76   -9.36     0.002000       0.9029    2.9294    0.3702
   72.74   89.34  -13.23     0.002000       0.8276    2.0042    0.5985
 -156.89   91.03  179.01     0.002000       0.6346    3.8826    0.3940
   94.48   89.92  -12.08     0.002000       0.8868    2.5982    0.4273
 -136.46   91.12  171.64     0.002000       0.8948    3.0309    0.3605
  151.04   89.94  178.39     0.002000       0.5970    3.8877    0.4185
   53.42   89.08   -5.27     0.002000       0.8333    3.3827    0.3455
  175.92   90.49  174.90     0.002000       0.7945    3.4342    0.3571
   98.07   89.59   -0.53     0.002000       0.5210    3.6993    0.5055
  102.11   90.77    2.95     0.002000       0.7126    3.7221    0.3664
 -159.46   87.99  171.29     0.002000       0.9074    2.5683    0.4219
   58.55   89.86   -1.54     0.002000       0.5798    3.8740    0.4326
  155.66   91.81 -167.87     0.002000       0.8222    1.8024    0.6713
  173.73   94.02  168.49     0.002000       0.8529    2.1190    0.5483
   73.59   90.59    0.02     0.002000       0.6706    3.9717    0.3638
  178.11   88.96 -177.70     0.002000       0.6876    3.7515    0.3767
  141.90   89.92 -179.69     0.002000       0.5263    3.9329    0.4693
  130.91   94.05  -10.50     0.002000       0.8337    1.7005    0.7023
   51.91   89.62   -1.16     0.002000       0.5207    3.7910    0.4931
   97.16   89.66   11.13     0.002000       0.8945    2.7498    0.3993
 -154.72   86.34  167.75     0.002000       0.8334    1.9896    0.5987
 -139.73   91.07  171.12     0.002000       0.8971    2.9729    0.3670
  123.25   93.28   12.55     0.002000       0.8319    1.9327    0.6179
 -152.07   89.44  179.42     0.002000       0.5891    3.9071    0.4219
   92.17   84.24  -10.66     0.002000       0.8477    1.8874    0.6210
  100.67   90.84   -0.73     0.002000       0.5159    3.7824    0.4988
   87.84   93.93   12.29     0.002000       0.8392    1.9932    0.5934
   71.61   93.95   11.74     0.002000       0.8536    2.1304    0.5448
  107.88   89.51   -0.64     0.002000       0.5231    3.7097    0.5020
  148.94   90.89 -172.93     0.002000       0.9039    2.9317    0.3690
  136.84   89.29  179.91     0.002000       0.6256    3.9487    0.3926
   51.72   91.03    5.70     0.002000       0.8285    1.5302    0.7863
  142.16   92.63 -168.00     0.002000       0.8254    1.7990    0.6700
 -166.96   90.96 -174.59     0.002000       0.8362    3.3395    0.3489
  102.13   91.26   10.96     0.002000       0.9012    2.7302    0.3992
 -159.19   91.02 -168.52     0.002000       0.8923    2.6150    0.4217
  106.26   83.76   -4.28     0.002000       0.8483    1.5676    0.7494
 -175.37   90.40 -167.09     0.002000       0.8448    2.1937    0.5344
   70.69   89.71   -3.67     0.002000       0.7236    3.6561    0.3677
   70.68   82.27   -2.82     0.002000       0.8587    1.6079    0.7215
 -137.12   90.64  166.83     0.002000       0.8356    2.1141    0.5613
 -154.98   92.78  167.39     0.002000       0.8338    2.0424    0.5827
   80.09   90.91   -8.01     0.002000       0.8879    3.0829    0.3570
  104.08   90.60   -5.42     0.002000       0.8394    3.3881    0.3420
  124.59   89.86    0.43     0.002000       0.5597    3.9393    0.4405
  101.53   90.00   -0.95     0.002000       0.5264    3.7266    0.4965
  130.98   90.64   -3.74     0.002000       0.7745    3.6248    0.3458
  126.74   87.38   12.25     0.002000       0.8270    1.8044    0.6666
  117.85   90.67    8.80     0.002000       0.8913    3.0058    0.3652
 -175.46   88.25  171.37     0.002000       0.9104    2.6424    0.4083
   98.68   90.24   -0.57     0.002000       0.5231    3.7004    0.5033
   89.07   94.78   10.79     0.002000       0.8360    1.7579    0.6771
   78.88   86.23    1.17     0.002000       0.8343    1.5109    0.7909
   71.14   90.08    1.31     0.002000       0.6079    3.9399    0.4052
  100.77   90.28    1.28     0.002000       0.5502    3.8667    0.4570
   87.17   88.65   -9.76     0.002000       0.9057    2.8602    0.3783
 -142.61   90.50  179.14     0.002000       0.5148    3.8834    0.4862
 -148.85   95.99 -173.92     0.002000       0.8889    2.0463    0.5447
   77.31   94.47   -9.73     0.002000       0.8731    2.1894    0.5176
   57.64   88.81   13.18     0.002000       0.8289    2.0301    0.5898
  179.45   89.51  179.77     0.002000       0.6715    3.9373    0.3666
 -162.32   88.91  171.96     0.002000       0.8912    3.0537    0.3592
   82.53   90.30    0.09     0.002000       0.5592    3.9481    0.4399
  167.65   92.86 -167.99     0.002000       0.8595    2.2302    0.5162
 -137.79   90.79 -169.86     0.002000       0.8976    2.8255    0.3868
 -146.88   85.47  172.18     0.002000       0.8864    2.2000    0.5070
   94.93   89.97   -1.46     0.002000       0.6568    3.9716    0.3715
  176.29   90.83 -174.72     0.002000       0.8229    3.3655    0.3518
  141.22   89.20  179.13     0.002000       0.5965    3.9030    0.4171
  162.74   95.56 -169.59     0.002000       0.8457    1.9282    0.6090
   94.39   92.58   12.17     0.002000       0.8702    2.3200    0.4895
   95.99   89.90   -1.71     0.002000       0.6036    3.9074    0.4116
  100.22   89.87   -0.25     0.002000       0.5226    3.6840    0.5060
   74.22   84.19    9.98     0.002000       0.8576    1.9909    0.5812
  134.84   82.02  174.57     0.002000       0.8619    1.6925    0.6824
  125.78   81.61    2.65     0.002000       0.8692    1.6573    0.6912
 -163.84   89.30  175.42     0.002000       0.7781    3.4913    0.3584
   95.71   90.80   11.14     0.002000       0.8967    2.7328    0.4009
  104.37   90.78    0.71     0.002000       0.6169    3.9246    0.4009
 -163.00   91.05  172.74     0.002000       0.8798    3.1476    0.3525
  152.61   95.74 -173.15     0.002000       0.8851    2.0727    0.5400
  132.42   89.12   -7.67     0.002000       0.8811    3.1222    0.3551
  147.45   89.54 -178.84     0.002000       0.5282    3.8465    0.4787
  162.20   89.36 -179.34     0.002000       0.6932    3.9057    0.3580
  159.00   91.88 -168.67     0.002000       0.8946    2.5423    0.4331
   58.31   90.52    5.54     0.002000       0.8584    3.2580    0.3482
   92.74   87.78  -12.56     0.002000       0.8655    2.3069    0.4951
  114.51   94.92    7.07     0.002000       0.8405    1.5921    0.7446
  118.32   89.00  -12.53     0.002000       0.8790    2.4718    0.4540
   54.45   97.43    2.55     0.002000       0.8540    1.5934    0.7322
   58.27   90.01   10.90     0.002000       0.8946    2.7727    0.3959
  143.41   89.18  179.14     0.002000       0.5170    3.8412    0.4898
  101.25   89.87    0.73     0.002000       0.5238    3.7077    0.5015
  156.07   90.84  166.88     0.002000       0.8463    2.1900    0.5344
  109.35   89.09   11.40     0.002000       0.8953    2.6931    0.4077
 -141.51   89.27 -178.43     0.002000       0.6186    3.8490    0.4081
   96.70   89.98    1.53     0.002000       0.6494    3.9652    0.3765
   72.39   89.53   -0.52     0.002000       0.6747    3.9747    0.3612
  160.11   96.47  179.31     0.002000       0.9100    1.9990    0.5448
  109.21   91.14   -9.09     0.002000       0.9035    2.9367    0.3689
  167.97   98.29 -176.85     0.002000       0.8679    1.7001    0.6744
   71.09   91.26   -9.48     0.002000       0.9046    2.8880    0.3750
   99.18   89.01  -10.84     0.002000       0.8987    2.7683    0.3947
 -138.47   89.22  179.32     0.002000       0.6308    3.9117    0.3933
   67.21   95.13    4.07     0.002000       0.9130    2.1357    0.5071
  110.40   90.36   -1.27     0.002000       0.5340    3.8065    0.4787
   91.02   91.30  -11.38     0.002000       0.8972    2.6646    0.4113
  100.12   92.96    9.43     0.002000       0.8333    1.6258    0.7354
  159.15   90.05 -166.82     0.002000       0.8298    2.0493    0.5835
   60.14   95.86    6.04     0.002000       0.8928    2.0662    0.5369
  127.64   90.43   11.70     0.002000       0.8914    2.6500    0.4164
  178.45   89.62 -170.26     0.002000       0.8933    2.8705    0.3824
   53.84   88.78  -10.23     0.002000       0.9022    2.8071    0.3873
  107.72   89.31    4.37     0.002000       0.7838    3.5366    0.3510
  168.09   91.22 -169.00     0.002000       0.8988    2.6812    0.4079
   82.22   96.67   -1.27     0.002000       0.8503    1.5601    0.7513
 -143.24   82.44 -173.42     0.002000       0.8634    1.8114    0.6356
  100.35   89.78   -0.99     0.002000       0.5271    3.7325    0.4950
  151.26   90.99 -176.41     0.002000       0.7679    3.6180    0.3498
  159.96   89.95  178.42     0.002000       0.5757    3.8557    0.4379
   59.14   90.14   -1.00     0.002000       0.6034    3.9508    0.4071
  131.27   89.66    1.29     0.002000       0.5396    3.8193    0.4720
  165.66   88.66  169.36     0.002000       0.9027    2.7484    0.3958
 -168.92   94.29 -171.17     0.002000       0.8782    2.2113    0.5092
  171.35   90.97  177.83     0.002000       0.6987    3.7975    0.3658
   80.91   82.74    4.38     0.002000       0.8528    1.6076    0.7267
  178.41   86.40 -168.21     0.002000       0.8516    2.1461    0.5420
  153.36   89.91 -179.54     0.002000       0.5229    3.9247    0.4735
   87.03   90.12   -0.23     0.002000       0.5501    3.9508    0.4468
 -170.94   91.04  170.88     0.002000       0.8977    2.9353    0.3716
 -154.51   90.97  176.48     0.002000       0.7550    3.6537    0.3521
  168.26   89.94 -178.64     0.002000       0.6482    3.9262    0.3811
  169.49   90.97 -179.01     0.002000       0.6227    3.8663    0.4033
  169.98   97.84  176.30     0.002000       0.8585    1.6345    0.7097
  150.72   87.29 -169.07     0.002000       0.8866    2.4108    0.4616
   91.87   90.84   -3.97     0.002000       0.7896    3.6101    0.3407
 -143.59   89.85 -170.75     0.002000       0.8896    2.9408    0.3744
  107.11   89.38    0.99     0.002000       0.5191    3.7618    0.4986
   92.20   90.00    1.00     0.002000       0.5265    3.7354    0.4952
   86.95   89.10    2.26     0.002000       0.7224    3.8159    0.3518
 -155.63   81.49  178.10     0.002000       0.8725    1.7128    0.6658
   88.69   89.44    6.80     0.002000       0.8593    3.2412    0.3503
  155.13   89.93  173.27     0.002000       0.8481    3.2429    0.3548
   76.24   89.06    3.94     0.002000       0.7694    3.5875    0.3523
  163.51   90.38  169.24     0.002000       0.8956    2.7707    0.3957
 -163.73   90.09  178.80     0.002000       0.5742    3.8991    0.4338
 -178.91   83.30 -171.09     0.002000       0.8494    1.8147    0.6450
   44.55   85.33  -11.46     0.002000       0.8368    1.9190    0.6186
   95.52   88.83   -0.10     0.002000       0.5162    3.7752    0.4995
   96.87   89.11    9.76     0.002000       0.8983    2.9014    0.3759
   55.56   89.58   -0.60     0.002000       0.6738    3.9644    0.3627
  119.49   90.05   -5.19     0.002000       0.8018    3.4566    0.3514
  133.94   91.49  -12.38     0.002000       0.8805    2.4549    0.4564
  100.45   90.01   -0.36     0.002000       0.5223    3.6868    0.5060
 -166.09   90.47  178.95     0.002000       0.5265    3.8699    0.4772
  135.85   90.26  179.29     0.002000       0.5730    3.9284    0.4314
   82.39   90.22   -1.33     0.002000       0.5477    3.8198    0.4649
  178.07   92.40  167.20     0.002000       0.8318    2.0302    0.5877
   79.80   89.32   11.18     0.002000       0.8954    2.7317    0.4017
 -146.75   89.61  178.77     0.002000       0.5300    3.8573    0.4756
  125.70   90.19   -1.81     0.002000       0.6154    3.8686    0.4081
 -142.57   90.85  178.18     0.002000       0.6268    3.8323    0.4045
   99.16   89.53   -2.76     0.002000       0.6742    3.7764    0.3817
   58.85   89.60    1.13     0.002000       0.5271    3.7676    0.4902
  109.53   89.74    1.36     0.002000       0.5474    3.8164    0.4657
  109.01   90.82   -7.66     0.002000       0.8969    3.0044    0.3626
   82.68   91.26  -12.28     0.002000       0.8818    2.4920    0.4487
 -152.73   90.01  178.40     0.002000       0.6219    3.9160    0.3985
   66.39   89.53    1.12     0.002000       0.5292    3.7724    0.4876
   76.19   90.55   12.59     0.002000       0.8763    2.4657    0.4566
   93.19   89.14  -10.04     0.002000       0.8981    2.8700    0.3803
 -170.56   85.37  168.51     0.002000       0.8332    1.9008    0.6274
 -134.73   92.95  169.75     0.002000       0.8254    1.6754    0.7202
 -163.24   90.14 -178.68     0.002000       0.5806    3.8822    0.4310
  171.03   89.91 -178.62     0.002000       0.5655    3.8447    0.4471
 -147.61   90.09 -178.57     0.002000       0.5697    3.8533    0.4427
 -160.74   91.02 -178.78     0.002000       0.6600    3.8597    0.3810
 -136.05   89.44  179.87     0.002000       0.6714    3.9524    0.3652
  115.26   81.41    1.92     0.002000       0.8748    1.6842    0.6756
   53.68   91.19  -12.37     0.002000       0.8752    2.4349    0.4631
 -156.68   90.61 -174.36     0.002000       0.8625    3.2028    0.3528
   56.89   92.87   12.32     0.002000       0.8563    2.2169    0.5214
  100.71   86.65  -12.01     0.002000       0.8298    1.8081    0.6630
  115.20   97.71   -4.31     0.002000       0.8872    1.8587    0.6023
 -179.54   90.88 -178.16     0.002000       0.6390    3.8036    0.3998
   93.51   89.65    1.39     0.002000       0.5559    3.8503    0.4542
 -132.80   88.20 -167.94     0.002000       0.8794    2.4386    0.4601
 -132.88   86.49 -170.09     0.002000       0.8804    2.3108    0.4855
  129.85   88.97    6.95     0.002000       0.8795    3.1937    0.3473
   78.97   86.88   11.22     0.002000       0.8276    1.7310    0.6948
   85.80   88.97   -2.77     0.002000       0.7277    3.7473    0.3560
  168.78   90.05  178.46     0.002000       0.6236    3.9111    0.3979
 -139.44   90.71 -178.87     0.002000       0.7018    3.8889    0.3551
   84.56   89.60   10.05     0.002000       0.8948    2.8824    0.3801
  144.05   82.51  172.56     0.002000       0.8609    1.7969    0.6428
  101.29   88.09   12.33     0.002000       0.8788    2.4270    0.4627
   98.77   89.33  -13.30     0.002000       0.8431    2.1625    0.5435
  118.98   86.17  -11.04     0.002000       0.8717    2.2413    0.5062
   99.02   86.47   -2.50     0.002000       0.8364    1.5132    0.7878
   66.17   82.04    3.55     0.002000       0.8855    1.8402    0.6097
 -173.28   86.67  170.33     0.002000       0.8854    2.3389    0.4767
   54.43   90.81   -7.76     0.002000       0.8823    3.0979    0.3575
 -160.80   91.02  173.86     0.002000       0.8573    3.2823    0.3464
 -136.16   85.11 -177.15     0.002000       0.8353    1.5346    0.7776
  125.12   96.74   -2.80     0.002000       0.8524    1.5697    0.7448
  156.51   81.86  175.97     0.002000       0.8611    1.6646    0.6946
  159.33   93.18 -167.61     0.002000       0.8307    1.9678    0.6075
  169.39   89.79 -178.93     0.002000       0.6137    3.9172    0.4037
  134.57   90.19   -0.98     0.002000       0.5863    3.9299    0.4214
   80.03   81.43    0.82     0.002000       0.8726    1.6719    0.6823
  107.05   88.97    6.61     0.002000       0.8733    3.2437    0.3441
  179.67   88.69  169.72     0.002000       0.9035    2.7890    0.3894
 -177.76   89.02  167.72     0.002000       0.8813    2.4874    0.4499
   76.42   89.81    1.22     0.002000       0.5858    3.9091    0.4242
 -141.45   81.58  179.42     0.002000       0.8816    1.7673    0.6382
   96.22   93.62   12.45     0.002000       0.8338    1.9340    0.6160
 -154.59   90.18  169.25     0.002000       0.8949    2.7756    0.3953
   57.83   88.72   -9.30     0.002000       0.9063    2.8473    0.3797
   63.25   89.84   -1.05     0.002000       0.5584    3.9213    0.4436
 -158.55   86.61 -168.52     0.002000       0.8239    1.8017    0.6701
  173.10   91.09 -168.52     0.002000       0.8932    2.6113    0.4220
  120.06   90.45   12.45     0.002000       0.8808    2.5086    0.4462
  125.26   90.23    9.03     0.002000       0.8887    2.9898    0.3684
  151.61   85.92  172.78     0.002000       0.8970    2.2686    0.4853
   88.72   90.97   -1.93     0.002000       0.6805    3.8398    0.3714
  118.22   87.71   12.55     0.002000       0.8662    2.3072    0.4946
   86.55   90.72    6.33     0.002000       0.8564    3.2825    0.3468
  112.24   89.97    1.51     0.002000       0.6464    3.9626    0.3785
  107.45   89.11    0.34     0.002000       0.5172    3.7261    0.5053
  132.67   89.56   -0.69     0.002000       0.6506    3.9745    0.3748
   71.75   89.26    0.65     0.002000       0.5191    3.7307    0.5029
  110.94   89.83    0.19     0.002000       0.5534    3.9478    0.4445
 -152.33   90.22 -174.58     0.002000       0.8090    3.3849    0.3559
  104.24   90.54   -0.10     0.002000       0.5203    3.7002    0.5060
   80.29   87.65   12.37     0.002000       0.8692    2.3301    0.4879
  130.71   81.75  175.77     0.002000       0.8791    1.7850    0.6336
  123.08   97.56    4.32     0.002000       0.8882    1.8805    0.5945
  128.87   82.16   -1.95     0.002000       0.8961    1.8753    0.5908
  135.74   92.87   -8.87     0.002000       0.8977    2.4057    0.4565
  102.52   90.02    0.39     0.002000       0.5577    3.9458    0.4413
  178.69   90.52  179.76     0.002000       0.5844    3.9172    0.4241
  108.40   89.37   11.37     0.002000       0.8943    2.7076    0.4059
   95.50   90.86   -4.46     0.002000       0.8029    3.5164    0.3445
 -169.41   89.91  178.48     0.002000       0.5863    3.8811    0.4269
  115.42   89.10   -8.99     0.002000       0.8947    2.9858    0.3663
  106.15   90.52    1.09     0.002000       0.5301    3.8194    0.4805
  150.50   90.44  179.44     0.002000       0.5877    3.9267    0.4207
  177.59   84.37  173.67     0.002000       0.8368    1.5939    0.7471
   79.79   89.90   -1.67     0.002000       0.6216    3.9300    0.3972
  129.19   89.54   -1.05     0.002000       0.5268    3.7546    0.4922
   72.30   83.59   -7.58     0.002000       0.8781    1.9963    0.5657
   54.66   90.74   12.21     0.002000       0.8840    2.5397    0.4389
   74.87   91.03    0.14     0.002000       0.5120    3.7663    0.5048
  138.78   89.05 -173.48     0.002000       0.8676    3.2270    0.3484
   88.36   88.98    8.21     0.002000       0.8916    3.0633    0.3579
  112.38   90.14   -1.04     0.002000       0.5201    3.7368    0.5011
 -143.70   90.14 -179.31     0.002000       0.5603    3.9149    0.4428
 -178.47   89.12  172.55     0.002000       0.8936    2.9992    0.3646
  151.74   90.98 -175.72     0.002000       0.7972    3.5107    0.3476
  160.70   89.92  178.69     0.002000       0.5806    3.8940    0.4296
   97.50   89.07  -11.06     0.002000       0.8972    2.7418    0.3993
  118.53   90.13    3.61     0.002000       0.7209    3.6626    0.3684
  120.04   89.03   10.34     0.002000       0.8998    2.8251    0.3859
  145.43   93.25  167.39     0.002000       0.8396    2.0453    0.5778
 -168.69   88.95 -176.98     0.002000       0.7330    3.6729    0.3610
  108.14   90.45   13.29     0.002000       0.8470    2.1997    0.5315
  160.43   98.43 -178.20     0.002000       0.8716    1.6958    0.6733
   98.41   89.31    0.31     0.002000       0.6404    3.9806    0.3803
  137.23   91.01 -172.56     0.002000       0.8849    3.1320    0.3523
   76.78   96.51    7.33     0.002000       0.8788    1.9820    0.5694
  155.18   90.62 -179.08     0.002000       0.5249    3.8039    0.4874
  124.11   90.89    5.37     0.002000       0.8384    3.3827    0.3434
 -170.85   86.88  167.67     0.002000       0.8253    1.9056    0.6319
   61.61   87.39   -9.66     0.002000       0.8291    1.6395    0.7328
   54.67   82.88    2.88     0.002000       0.8977    1.9460    0.5678
   50.65   87.17    7.32     0.002000       0.9067    2.4261    0.4479
 -148.12   93.98 -179.71     0.002000       0.8310    1.5124    0.7933
 -158.40   89.53  178.87     0.002000       0.5051    3.8381    0.5018
 -143.76   89.28 -179.45     0.002000       0.5931    3.9048    0.4193
   98.11   90.32   -0.36     0.002000       0.5226    3.6942    0.5047
  150.64   89.69 -176.99     0.002000       0.6813    3.7150    0.3843
  132.89   84.61   11.13     0.002000       0.8459    1.9229    0.6106
   69.22   88.20  -10.76     0.002000       0.9018    2.6384    0.4132
  165.49   89.66  169.27     0.002000       0.8953    2.7772    0.3949
  128.28   89.90   -1.06     0.002000       0.5196    3.7384    0.5013
   95.02   90.06   -0.96     0.002000       0.5201    3.9093    0.4780
   84.18   89.18   -0.46     0.002000       0.6667    3.9641    0.3667
   59.84   90.42  -12.86     0.002000       0.8599    2.3213    0.4953
   89.87   91.15   12.03     0.002000       0.8887    2.5688    0.4314
   80.14   89.76   -0.74     0.002000       0.6968    3.9745    0.3497
 -159.45   89.88  178.79     0.002000       0.6633    3.9404    0.3709
  119.74   84.24   -1.56     0.002000       0.9195    2.0828    0.5167
   46.05   90.19    1.30     0.002000       0.5562    3.8915    0.4490
 -151.12   89.66 -179.28     0.002000       0.5125    3.8877    0.4879
 -150.73   91.28  169.92     0.002000       0.9039    2.8180    0.3850
 -177.98   95.74  171.56     0.002000       0.8710    2.0464    0.5561
 -164.06   93.27 -168.52     0.002000       0.8238    1.7970    0.6720
 -162.19   90.64 -179.81     0.002000       0.6067    3.9236    0.4077
   72.39   89.25    4.16     0.002000       0.7938    3.5504    0.3447
  155.78   90.31 -178.88     0.002000       0.5498    3.8574    0.4584
  157.62   89.53 -174.07     0.002000       0.8338    3.3119    0.3531
  123.32   87.65  -12.39     0.002000       0.8715    2.3383    0.4849
  146.41   88.81 -169.54     0.002000       0.9017    2.7792    0.3916
 -173.44   88.94 -171.87     0.002000       0.8911    3.0234    0.3630
 -148.92   91.01 -172.89     0.002000       0.8802    3.1520    0.3518
   89.50   82.22   -6.60     0.002000       0.8656    1.7509    0.6564
   96.91   88.64   11.21     0.002000       0.8996    2.6950    0.4053
   78.38   91.38  -11.39     0.002000       0.8968    2.6484    0.4141
 -141.17   86.18  168.25     0.002000       0.8516    2.1347    0.5450
   97.62   89.45   -0.09     0.002000       0.5217    3.6933    0.5056
 -175.38   83.39 -177.29     0.002000       0.9032    1.9946    0.5502
 -160.57   86.26 -176.97     0.002000       0.8300    1.5215    0.7895
   77.05   92.17   12.78     0.002000       0.8547    2.2307    0.5191
  150.54   90.97 -175.66     0.002000       0.7996    3.5024    0.3474
   53.07   89.39    1.82     0.002000       0.6159    3.8498    0.4098
  134.86   90.36   -0.91     0.002000       0.6501    3.9628    0.3763
   72.35   89.88    0.81     0.002000       0.5594    3.9432    0.4403
 -150.14   98.15 -175.60     0.002000       0.8687    1.7362    0.6596
   75.67   89.88    0.07     0.002000       0.5426    3.9505    0.4531
  105.49   87.75   13.06     0.002000       0.8416    2.1141    0.5571
 -173.48   94.06 -170.36     0.002000       0.8737    2.2242    0.5089
   60.61   83.36    8.96     0.002000       0.8564    1.8871    0.6148
 -164.76   81.62 -177.04     0.002000       0.8739    1.7449    0.6523
 -146.36   89.25  167.10     0.002000       0.8574    2.2946    0.5027
  147.20   89.01 -177.91     0.002000       0.6831    3.7856    0.3756
  119.74   90.64   -5.48     0.002000       0.8401    3.3902    0.3416
 -147.92   90.51  179.81     0.002000       0.5864    3.9317    0.4210
  138.19   89.25  168.30     0.002000       0.8924    2.6449    0.4168
 -165.70   88.91  170.05     0.002000       0.9011    2.8400    0.3832
   53.26   86.17   -9.07     0.002000       0.8834    2.2767    0.4912
  106.44   89.42   -0.80     0.002000       0.7173    3.9282    0.3437
  104.44   91.58  -10.94     0.002000       0.9028    2.6840    0.4056
  104.43   88.89   11.91     0.002000       0.8907    2.5994    0.4252
  107.91   94.62    9.46     0.002000       0.8764    2.1788    0.5182
  170.87   92.31  168.60     0.002000       0.8863    2.4374    0.4566
 -143.83   90.50  170.45     0.002000       0.8932    2.9168    0.3761
  176.23   90.10 -170.25     0.002000       0.8924    2.8732    0.3824
  175.60   89.73  179.02     0.002000       0.5135    3.7363    0.5076
 -138.60   90.10 -179.57     0.002000       0.7114    3.9408    0.3454
  121.52   86.86  -12.32     0.002000       0.8589    2.2066    0.5223
  146.54   89.15  170.95     0.002000       0.8938    2.9668    0.3692
   93.31   90.91   -6.08     0.002000       0.8578    3.3072    0.3435
   80.91   95.48  -10.63     0.002000       0.8498    1.9591    0.5963
  106.61   89.96    0.72     0.002000       0.5227    3.7070    0.5028
  173.23   96.61  170.91     0.002000       0.8506    1.8203    0.6421
  106.75   89.99   -1.22     0.002000       0.5343    3.7666    0.4837
   60.96   82.99    8.40     0.002000       0.8545    1.8156    0.6409
 -143.89   93.49  169.53     0.002000       0.8762    2.2941    0.4916
 -153.38   89.91 -166.97     0.002000       0.8330    2.0976    0.5675
 -150.52   89.53  173.68     0.002000       0.8426    3.2771    0.3533
  146.47   89.23  175.09     0.002000       0.8193    3.4564    0.3434
   59.78   90.77  -11.55     0.002000       0.8920    2.6480    0.4165
 -171.34   89.78 -172.76     0.002000       0.8622    3.1522    0.3594
  147.18   89.42  169.29     0.002000       0.8964    2.7861    0.3931
   46.89   90.94   -4.54     0.002000       0.8132    3.4960    0.3421
 -151.85   89.56  166.83     0.002000       0.8315    2.0792    0.5737
   87.66   92.00   10.75     0.002000       0.8999    2.5770    0.4243
 -151.71   89.12  172.22     0.002000       0.8970    2.9736    0.3665
  120.31   90.67  -10.92     0.002000       0.8969    2.7670    0.3956
  124.60   90.00   -1.30     0.002000       0.5121    3.8047    0.4994
 -160.28   87.41  173.93     0.002000       0.8281    1.5443    0.7795
  140.28   87.59  173.16     0.002000       0.9164    2.5049    0.4286
  146.44   87.10 -167.93     0.002000       0.8654    2.2698    0.5035
 -145.49   90.40  178.76     0.002000       0.5467    3.8582    0.4609
  149.74   89.44 -178.50     0.002000       0.6142    3.8606    0.4098
 -164.47   89.63 -173.71     0.002000       0.8410    3.2639    0.3555
  146.00   91.96  169.14     0.002000       0.8992    2.5615    0.4274
 -143.18   89.98  167.34     0.002000       0.8716    2.4222    0.4676
   97.37   90.77    0.82     0.002000       0.5163    3.7831    0.4984
 -166.62   93.06 -168.38     0.002000       0.8637    2.2524    0.5085
  105.44   90.10    1.17     0.002000       0.6028    3.9511    0.4075
  124.45   90.31    6.46     0.002000       0.8485    3.2774    0.3507
   54.97   90.21    0.63     0.002000       0.5681    3.9267    0.4353
 -156.60   88.30 -171.73     0.002000       0.9104    2.6525    0.4067
   91.03   89.57   -0.51     0.002000       0.5725    3.9455    0.4299
   65.94   98.05   -4.85     0.002000       0.8660    1.7272    0.6652
 -147.02   88.03 -168.85     0.002000       0.8947    2.5467    0.4322
 -155.43   90.85 -171.69     0.002000       0.8888    3.0128    0.3653
  102.47   89.49   -9.35     0.002000       0.8921    2.9616    0.3706
   85.64   88.73  -13.25     0.002000       0.8354    2.0837    0.5697
 -146.94   95.01 -177.00     0.002000       0.8366    1.5361    0.7757
 -146.17   90.62 -170.01     0.002000       0.8959    2.8426    0.3851
  175.53   89.90 -179.78     0.002000       0.5354    3.9171    0.4632
   73.43   89.92  -12.51     0.002000       0.8767    2.4786    0.4539
   66.50   91.09    8.85     0.002000       0.9002    2.9850    0.3641
   48.12   90.83   10.18     0.002000       0.8989    2.8375    0.3845
  139.92   89.34 -175.36     0.002000       0.7944    3.4794    0.3522
   74.23   88.34  -13.12     0.002000       0.8294    2.0060    0.5966
  174.19   84.68  170.10     0.002000       0.8605    2.0665    0.5575
   97.91   89.87   -1.38     0.002000       0.6639    3.9750    0.3672
  115.39   89.94    1.23     0.002000       0.5119    3.8458    0.4941
  161.15   91.93 -170.22     0.002000       0.9051    2.6065    0.4168
   96.02   88.26   -8.99     0.002000       0.9110    2.6729    0.4032
  101.89   91.93  -11.31     0.002000       0.8966    2.5666    0.4278
  156.26   85.14 -168.85     0.002000       0.8345    1.8174    0.6558
   78.37   90.31   -0.15     0.002000       0.5589    3.9452    0.4404
  100.34   91.12    9.48     0.002000       0.9021    2.9208    0.3717
 -151.89   86.70 -168.39     0.002000       0.8602    2.2228    0.5175
   88.64   89.96  -10.19     0.002000       0.8939    2.8692    0.3823
   97.78   89.21   -0.34     0.002000       0.6042    3.9457    0.4070
 -170.78   94.71 -171.11     0.002000       0.8738    2.1604    0.5243
   68.55   90.10  -11.94     0.002000       0.8871    2.6040    0.4262
  147.09   89.12 -168.44     0.002000       0.8929    2.6402    0.4173
  102.63   88.69  -13.30     0.002000       0.8301    2.0064    0.5961
 -156.78   94.61 -169.50     0.002000       0.8298    1.7608    0.6810
  115.44   90.44    0.95     0.002000       0.5278    3.7572    0.4909
  165.54   91.16  168.12     0.002000       0.8903    2.5673    0.4308
  141.43   92.04 -171.53     0.002000       0.9093    2.5731    0.4202
   66.05   90.17    0.28     0.002000       0.5447    3.9383    0.4528
  105.29   90.54   -1.09     0.002000       0.5193    3.7910    0.4943
  174.10   92.87  167.46     0.002000       0.8267    1.9277    0.6234
   90.81   89.46   -1.18     0.002000       0.5251    3.8504    0.4810
  145.33   91.26 -168.30     0.002000       0.8925    2.5890    0.4260
   71.93   89.42    0.74     0.002000       0.5785    3.9223    0.4280
  125.72   90.26    0.39     0.002000       0.5749    3.9514    0.4273
  110.13   89.52    0.02     0.002000       0.5728    3.9485    0.4293
   99.90   91.08   -8.63     0.002000       0.8986    3.0137    0.3611
   85.66   89.99   -0.74     0.002000       0.5295    3.9246    0.4675
 -178.87   92.80  174.42     0.002000       0.9197    2.4042    0.4455
 -146.98   90.15 -179.79     0.002000       0.7199    3.9236    0.3429
  116.92   90.45    0.95     0.002000       0.5112    3.8642    0.4922
 -171.61   85.62 -168.85     0.002000       0.8287    1.8144    0.6615
  160.34   84.38 -173.98     0.002000       0.8409    1.5843    0.7480
   68.49   89.54    0.67     0.002000       0.6036    3.9625    0.4057
