MORPHOLOGY AT STRAIN =    0.0036  FOR PHASE  1
   0.999   1.003   0.998  <-- AXES OF PHASE ELLIPSOID
  180.00   89.99   90.00  <-- EULER ANGLES OF PHASE ELLIPSOID (deg)
   1.000   1.011   0.989  <-- AVERAGE OF GRAIN AXES FOR PHASE
   0.002   0.002   0.001  <-- STANDARD DEV OF AVG GRAIN AXES FOR PHASE
B      1148
  180.00   90.00  179.99     0.000000       1.0020    1.0115    0.9866
    0.01    0.00    0.00     0.000000       1.0014    1.0084    0.9903
  180.00   89.98   90.00     0.000000       0.9925    1.0197    0.9881
    3.80   48.14  142.07     0.000000       0.9995    1.0120    0.9886
 -179.99   90.36 -169.39     0.000145       1.0019    1.0117    0.9866
 -179.94   92.92 -172.40     0.000161       1.0019    1.0116    0.9866
 -179.94   93.38 -173.82     0.000850       1.0020    1.0116    0.9866
 -179.96   93.75 -175.43     0.000146       1.0020    1.0115    0.9866
 -179.92   91.07 -151.34     0.000338       1.0007    1.0127    0.9867
 -179.77   93.19 -152.03     0.000403       1.0008    1.0127    0.9867
 -179.65   95.21 -153.43     0.000062       1.0009    1.0125    0.9867
 -179.56   97.09 -155.56     0.000355       1.0011    1.0123    0.9867
 -179.53   98.77 -158.44     0.000441       1.0013    1.0121    0.9868
 -179.57  100.18 -162.10     0.000782       1.0015    1.0119    0.9868
 -179.65  101.29 -166.51     0.000271       1.0017    1.0116    0.9868
 -179.35   95.24 -138.90     0.000388       0.9992    1.0141    0.9869
 -179.01   98.60 -140.58     0.000432       0.9994    1.0138    0.9869
 -178.78  101.76 -143.20     0.000764       0.9998    1.0134    0.9870
 -178.71  104.61 -146.88     0.000633       1.0002    1.0129    0.9870
 -179.03  108.97 -158.12     0.000402       1.0012    1.0118    0.9871
 -178.69   97.13   51.30     0.000389       0.9975    1.0156    0.9871
 -178.00  101.80   49.54     0.000702       0.9978    1.0152    0.9872
 -177.56  106.30   46.73     0.000649       0.9983    1.0146    0.9873
 -178.08  116.88 -150.38     0.000440       1.0005    1.0120    0.9876
 -178.76  118.85 -160.39     0.000541       1.0013    1.0112    0.9876
 -177.75   98.68   59.84     0.000063       0.9959    1.0169    0.9874
 -176.56  104.62   58.12     0.000250       0.9962    1.0164    0.9876
 -175.81  110.59   55.29     0.000058       0.9967    1.0157    0.9878
 -177.95  127.89   25.12     0.000854       1.0008    1.0111    0.9882
 -178.80   93.11   68.10     0.000065       0.9945    1.0182    0.9876
 -176.51   99.57   67.42     0.000089       0.9946    1.0179    0.9878
    3.05   42.38  149.59     0.000806       1.0003    1.0109    0.9889
    1.04   40.75  168.46     0.000123       1.0014    1.0098    0.9889
 -178.30   92.92   74.85     0.000250       0.9935    1.0189    0.9879
    4.13   31.69  -35.22     0.000444       0.9998    1.0108    0.9895
    1.40   29.98  -13.82     0.000677       1.0013    1.0093    0.9895
 -177.83   92.15   81.12     0.000006       0.9928    1.0194    0.9881
 -173.52   97.10   80.86     0.000388       0.9928    1.0191    0.9884
 -169.43  104.45   80.25     0.000412       0.9927    1.0186    0.9889
    5.12   19.80  -39.04     0.000165       0.9994    1.0107    0.9901
    1.72   18.41  -15.73     0.001189       1.0011    1.0090    0.9900
 -177.53   90.79   87.08     0.000200       0.9925    1.0196    0.9882
   19.15   29.23   97.32     0.000182       0.9924    1.0167    0.9911
    5.78    6.77  -41.28     0.000021       0.9991    1.0106    0.9904
    1.97    6.22  -16.90     0.001447       1.0010    1.0088    0.9903
 -179.94   92.37 -171.23     0.000159       1.0019    1.0116    0.9866
 -179.94   92.92 -172.40     0.000795       1.0019    1.0116    0.9866
 -179.95   93.38 -173.82     0.000143       1.0020    1.0116    0.9866
 -179.92   91.07 -151.34     0.000408       1.0007    1.0127    0.9867
 -179.77   93.19 -152.03     0.000067       1.0008    1.0127    0.9867
 -179.64   95.21 -153.43     0.000416       1.0009    1.0125    0.9867
 -179.56   97.09 -155.56     0.000419       1.0011    1.0123    0.9867
 -179.54   98.77 -158.44     0.000260       1.0013    1.0121    0.9868
 -179.57  100.18 -162.09     0.000273       1.0015    1.0119    0.9868
 -179.78   91.76 -138.08     0.000466       0.9991    1.0142    0.9869
 -179.35   95.24 -138.90     0.000546       0.9992    1.0141    0.9869
 -179.00   98.60 -140.58     0.000651       0.9994    1.0138    0.9869
 -178.78  101.76 -143.21     0.000354       0.9998    1.0134    0.9870
 -178.81  107.05 -151.79     0.000392       1.0007    1.0124    0.9871
 -179.03  108.97 -158.12     0.000555       1.0012    1.0118    0.9871
 -179.55   92.38   52.15     0.000360       0.9973    1.0158    0.9871
 -178.69   97.12   51.30     0.000493       0.9975    1.0156    0.9871
 -178.00  101.80   49.54     0.000456       0.9978    1.0152    0.9872
 -178.08  116.88 -150.38     0.000629       1.0005    1.0120    0.9876
 -178.76  118.85 -160.39     0.000219       1.0013    1.0112    0.9876
 -177.75   98.68   59.84     0.000192       0.9959    1.0169    0.9874
 -176.79  125.22   36.74     0.000068       0.9997    1.0123    0.9882
 -177.94  127.89   25.12     0.000626       1.0008    1.0111    0.9882
 -178.80   93.12   68.10     0.000161       0.9945    1.0182    0.9876
 -176.51   99.58   67.42     0.000007       0.9946    1.0179    0.9878
    3.05   42.38  149.58     0.000486       1.0003    1.0109    0.9889
 -169.93  128.34   66.55     0.000111       0.9948    1.0161    0.9893
    4.13   31.69  -35.22     0.000295       0.9998    1.0108    0.9895
 -177.83   92.16   81.12     0.000338       0.9928    1.0194    0.9881
 -173.52   97.11   80.86     0.000381       0.9928    1.0191    0.9884
 -169.43  104.46   80.25     0.000463       0.9927    1.0186    0.9889
   14.19   44.38  105.51     0.000146       0.9935    1.0165    0.9902
    5.12   19.80  -39.04     0.000116       0.9994    1.0107    0.9901
    1.71   18.41  -15.72     0.000001       1.0011    1.0090    0.9900
 -177.53   90.80   87.08     0.000189       0.9925    1.0196    0.9882
    5.74    6.77  -41.23     0.000144       0.9991    1.0106    0.9904
    1.93    6.22  -16.86     0.000088       1.0010    1.0088    0.9903
 -179.95   91.74 -170.32     0.000155       1.0019    1.0116    0.9866
 -179.94   92.37 -171.23     0.000744       1.0019    1.0116    0.9866
 -179.95   92.92 -172.40     0.000141       1.0019    1.0116    0.9866
 -179.99   94.12 -179.07     0.000160       1.0020    1.0115    0.9866
 -179.92   91.07 -151.34     0.000070       1.0007    1.0127    0.9867
 -179.76   93.18 -152.04     0.000429       1.0008    1.0127    0.9867
 -179.64   95.21 -153.44     0.000402       1.0009    1.0125    0.9867
 -179.54   98.77 -158.44     0.000291       1.0013    1.0121    0.9868
 -179.58  100.19 -162.09     0.000157       1.0015    1.0119    0.9868
 -179.92  102.44 -177.15     0.000507       1.0020    1.0114    0.9868
 -179.77   91.75 -138.08     0.000587       0.9991    1.0142    0.9869
 -179.35   95.23 -138.90     0.000569       0.9992    1.0141    0.9869
 -179.00   98.60 -140.59     0.000072       0.9994    1.0138    0.9869
 -178.72  104.61 -146.88     0.000199       1.0002    1.0129    0.9870
 -178.81  107.05 -151.79     0.000574       1.0007    1.0124    0.9871
 -179.03  108.97 -158.12     0.000109       1.0012    1.0118    0.9871
 -179.77  110.97 -175.15     0.001149       1.0019    1.0111    0.9872
 -179.55   92.38   52.15     0.000318       0.9973    1.0158    0.9871
 -178.69   97.12   51.30     0.000456       0.9975    1.0156    0.9871
 -177.62  114.04   37.13     0.000062       0.9997    1.0130    0.9875
 -178.08  116.88 -150.38     0.000321       1.0005    1.0121    0.9876
 -179.56  119.85 -173.04     0.002138       1.0017    1.0107    0.9876
 -177.75   98.67   59.85     0.000003       0.9959    1.0169    0.9874
 -176.56  104.61   58.13     0.000018       0.9962    1.0164    0.9876
 -176.79  125.22   36.74     0.000138       0.9997    1.0123    0.9882
 -177.94  127.89   25.13     0.000443       1.0008    1.0111    0.9882
 -179.28  129.22    9.21     0.003654       1.0016    1.0103    0.9882
 -178.80   93.12   68.11     0.000146       0.9945    1.0182    0.9876
 -173.80  129.06   52.42     0.000085       0.9973    1.0141    0.9888
    4.84   45.74  136.66     0.000034       0.9988    1.0125    0.9889
    3.05   42.38  149.58     0.000972       1.0003    1.0109    0.9889
    1.05   40.76  168.45     0.005571       1.0014    1.0098    0.9889
 -172.18  107.15   73.21     0.000174       0.9936    1.0181    0.9885
    8.87   42.02  120.54     0.000208       0.9961    1.0145    0.9895
    6.71   35.48  130.64     0.000323       0.9979    1.0127    0.9896
    4.13   31.69  -35.21     0.001533       0.9998    1.0108    0.9895
    1.39   29.98  -13.82     0.008002       1.0013    1.0093    0.9895
 -177.84   92.18   81.11     0.000394       0.9928    1.0194    0.9881
 -173.52   97.13   80.86     0.000054       0.9928    1.0191    0.9884
 -166.32  117.26   78.74     0.000011       0.9928    1.0178    0.9897
   11.89   30.32  113.94     0.000060       0.9950    1.0148    0.9903
    8.56   23.18  125.59     0.000508       0.9971    1.0128    0.9902
    5.10   19.80  -39.02     0.001875       0.9994    1.0107    0.9901
    1.70   18.41  -15.70     0.010560       1.0011    1.0090    0.9900
 -177.53   90.82   87.08     0.000147       0.9925    1.0196    0.9882
 -162.01  106.84   86.55     0.000106       0.9919    1.0180    0.9903
   14.39   12.11  109.02     0.000287       0.9943    1.0150    0.9909
    9.78    8.21  122.51     0.000658       0.9966    1.0129    0.9906
    5.68    6.76  -41.16     0.002033       0.9991    1.0106    0.9904
    1.86    6.22  -16.79     0.012711       1.0010    1.0088    0.9903
 -179.96   91.06 -169.70     0.000152       1.0019    1.0117    0.9866
 -179.95   91.74 -170.32     0.000701       1.0019    1.0116    0.9866
 -179.95   92.37 -171.22     0.000140       1.0019    1.0116    0.9866
 -179.97   93.99 -177.20     0.000162       1.0020    1.0115    0.9866
 -179.98   94.12 -179.07     0.000959       1.0020    1.0115    0.9866
 -179.91   91.07 -151.34     0.000420       1.0007    1.0127    0.9867
 -179.76   93.18 -152.04     0.000384       1.0008    1.0127    0.9867
 -179.57   97.10 -155.56     0.000303       1.0011    1.0123    0.9867
 -179.55   98.77 -158.44     0.000326       1.0013    1.0121    0.9868
 -179.77  102.05 -171.59     0.000549       1.0019    1.0115    0.9868
 -179.91  102.44 -177.15     0.002815       1.0020    1.0114    0.9868
 -179.77   91.75 -138.08     0.000518       0.9991    1.0142    0.9869
 -178.72  104.61 -146.88     0.000329       1.0002    1.0129    0.9870
 -178.81  107.05 -151.79     0.000157       1.0007    1.0124    0.9871
 -179.03  108.97 -158.12     0.000175       1.0012    1.0118    0.9871
 -179.36  110.29 -165.98     0.001264       1.0016    1.0114    0.9871
 -179.77  110.97 -175.15     0.004569       1.0019    1.0111    0.9872
 -179.54   92.37   52.15     0.000401       0.9973    1.0158    0.9871
 -177.43  110.45   42.70     0.000104       0.9989    1.0138    0.9874
 -177.62  114.04   37.13     0.000231       0.9997    1.0130    0.9875
 -178.08  116.88 -150.38     0.000898       1.0005    1.0121    0.9876
 -178.75  118.85 -160.39     0.002068       1.0013    1.0112    0.9876
 -179.56  119.85 -173.04     0.006236       1.0017    1.0107    0.9876
 -175.61  116.29   51.06     0.000100       0.9975    1.0147    0.9879
 -175.96  121.28   45.07     0.000539       0.9985    1.0136    0.9881
 -176.78  125.22   36.74     0.001585       0.9997    1.0123    0.9882
 -177.94  127.89   25.13     0.002735       1.0008    1.0111    0.9882
 -179.29  129.22    9.21     0.008053       1.0016    1.0103    0.9883
 -173.43  114.39   63.19     0.000066       0.9953    1.0166    0.9883
 -173.15  122.19   58.85     0.000018       0.9961    1.0155    0.9886
 -173.80  129.05   52.42     0.001002       0.9973    1.0141    0.9888
    4.84   45.74  136.66     0.001955       0.9988    1.0125    0.9889
    3.05   42.38  149.58     0.002990       1.0003    1.0109    0.9889
    1.04   40.76  168.46     0.009874       1.0014    1.0098    0.9889
 -175.03   99.30   74.37     0.000307       0.9935    1.0187    0.9881
 -172.18  107.15   73.21     0.000114       0.9936    1.0181    0.9885
 -170.29  117.17   70.90     0.000314       0.9940    1.0173    0.9890
 -169.94  128.35   66.55     0.000013       0.9948    1.0161    0.9893
    8.87   42.02  120.55     0.000771       0.9961    1.0145    0.9895
    6.71   35.47  130.65     0.001812       0.9979    1.0127    0.9896
    4.12   31.68  -35.20     0.002644       0.9998    1.0108    0.9895
    1.38   29.98  -13.81     0.011943       1.0013    1.0093    0.9895
 -177.84   92.19   81.11     0.000150       0.9928    1.0194    0.9881
 -166.32  117.27   78.74     0.000373       0.9928    1.0178    0.9897
   14.19   44.36  105.51     0.000114       0.9935    1.0165    0.9902
   11.89   30.32  113.94     0.000634       0.9950    1.0148    0.9903
    8.55   23.18  125.61     0.001322       0.9971    1.0128    0.9902
    5.09   19.79  -39.00     0.002264       0.9994    1.0107    0.9901
    1.67   18.41  -15.68     0.013377       1.0011    1.0090    0.9900
 -177.53   90.84   87.08     0.000055       0.9925    1.0196    0.9882
 -172.50   92.77   87.01     0.000747       0.9924    1.0194    0.9885
 -167.26   96.20   86.87     0.000957       0.9922    1.0189    0.9893
 -162.02  106.87   86.55     0.000289       0.9919    1.0180    0.9903
   19.12   29.14   97.34     0.000316       0.9924    1.0167    0.9911
   14.39   12.10  109.02     0.000661       0.9943    1.0150    0.9909
    9.76    8.20  122.53     0.000822       0.9966    1.0129    0.9906
    5.61    6.76  -41.09     0.002160       0.9991    1.0106    0.9904
    1.78    6.21  -16.71     0.013719       1.0010    1.0088    0.9903
 -179.98   90.36 -169.39     0.000148       1.0019    1.0117    0.9866
 -179.97   91.07 -169.70     0.000670       1.0019    1.0117    0.9866
 -179.96   91.74 -170.32     0.000141       1.0019    1.0116    0.9866
 -179.96   93.75 -175.43     0.000164       1.0020    1.0115    0.9866
 -179.97   93.99 -177.20     0.000938       1.0020    1.0115    0.9866
 -179.98   94.12 -179.07     0.000156       1.0020    1.0115    0.9866
 -179.91   91.06 -151.35     0.000361       1.0007    1.0127    0.9867
 -179.65   95.21 -153.43     0.000311       1.0009    1.0125    0.9867
 -179.57   97.10 -155.56     0.000391       1.0011    1.0123    0.9867
 -179.55   98.77 -158.43     0.000009       1.0013    1.0121    0.9868
 -179.65  101.29 -166.51     0.000529       1.0017    1.0116    0.9868
 -179.76  102.05 -171.59     0.002301       1.0019    1.0115    0.9868
 -179.91  102.44 -177.15     0.000411       1.0020    1.0114    0.9868
 -178.79  101.76 -143.20     0.000221       0.9998    1.0134    0.9870
 -178.72  104.61 -146.88     0.000137       1.0002    1.0129    0.9870
 -178.81  107.05 -151.79     0.000661       1.0007    1.0124    0.9871
 -179.03  108.97 -158.12     0.001048       1.0012    1.0118    0.9871
 -179.36  110.29 -165.98     0.002586       1.0016    1.0114    0.9871
 -179.77  110.97 -175.15     0.000679       1.0019    1.0111    0.9872
 -177.56  106.30   46.73     0.000331       0.9983    1.0146    0.9873
 -177.43  110.45   42.70     0.000631       0.9989    1.0138    0.9874
 -177.61  114.04   37.13     0.001335       0.9997    1.0130    0.9875
 -178.07  116.88 -150.38     0.001300       1.0005    1.0121    0.9876
 -178.75  118.85 -160.39     0.001880       1.0013    1.0112    0.9876
 -179.56  119.85 -173.04     0.000899       1.0017    1.0107    0.9877
 -179.22   92.86   60.66     0.000033       0.9958    1.0171    0.9874
 -175.61  116.29   51.06     0.000943       0.9975    1.0147    0.9879
 -175.96  121.28   45.07     0.001337       0.9985    1.0136    0.9881
 -176.78  125.22   36.75     0.001027       0.9997    1.0123    0.9882
 -177.94  127.89   25.13     0.000950       1.0008    1.0111    0.9882
 -179.29  129.22    9.21     0.000961       1.0016    1.0103    0.9883
 -174.62  106.65   65.89     0.000307       0.9948    1.0174    0.9880
 -173.43  114.39   63.19     0.000237       0.9953    1.0166    0.9883
 -173.15  122.19   58.85     0.000624       0.9961    1.0155    0.9886
 -173.80  129.06   52.42     0.000641       0.9973    1.0141    0.9888
    4.84   45.74  136.66     0.000593       0.9988    1.0125    0.9889
    3.05   42.38  149.59     0.000308       1.0003    1.0109    0.9889
    1.03   40.76  168.46     0.000803       1.0014    1.0098    0.9889
 -178.31   92.94   74.85     0.000164       0.9935    1.0189    0.9879
 -175.03   99.29   74.37     0.000528       0.9935    1.0187    0.9881
 -170.29  117.17   70.90     0.000449       0.9940    1.0173    0.9890
 -169.94  128.35   66.55     0.000041       0.9948    1.0161    0.9893
    6.70   35.47  130.66     0.000015       0.9979    1.0127    0.9896
    1.37   29.98  -13.80     0.000474       1.0013    1.0093    0.9895
 -166.32  117.27   78.74     0.000190       0.9928    1.0178    0.9897
   14.19   44.36  105.51     0.000246       0.9935    1.0165    0.9902
   11.89   30.31  113.94     0.000069       0.9950    1.0148    0.9903
    5.07   19.79  -38.98     0.000166       0.9994    1.0107    0.9901
    1.66   18.41  -15.66     0.000284       1.0011    1.0090    0.9900
 -177.53   90.86   87.08     0.000010       0.9925    1.0196    0.9882
 -172.50   92.78   87.01     0.001046       0.9924    1.0194    0.9885
 -167.26   96.22   86.87     0.000838       0.9922    1.0189    0.9893
    5.61    6.75  -41.09     0.000197       0.9991    1.0106    0.9904
    1.72    6.21  -16.64     0.000010       1.0010    1.0088    0.9903
 -179.98   90.36 -169.39     0.000654       1.0019    1.0117    0.9866
 -179.97   91.07 -169.70     0.000143       1.0019    1.0117    0.9866
 -179.95   93.39 -173.82     0.000163       1.0020    1.0116    0.9866
 -179.95   93.75 -175.43     0.000899       1.0020    1.0115    0.9866
 -179.96   93.99 -177.20     0.000151       1.0020    1.0115    0.9866
 -179.77   93.19 -152.04     0.000321       1.0008    1.0127    0.9867
 -179.65   95.22 -153.43     0.000403       1.0009    1.0125    0.9867
 -179.58   97.10 -155.55     0.000049       1.0011    1.0123    0.9867
 -179.55   98.77 -158.43     0.000217       1.0013    1.0121    0.9868
 -179.57  100.18 -162.09     0.000481       1.0015    1.0119    0.9868
 -179.64  101.29 -166.51     0.001522       1.0017    1.0116    0.9868
 -179.76  102.05 -171.59     0.000317       1.0019    1.0115    0.9868
 -179.01   98.60 -140.59     0.000283       0.9994    1.0138    0.9869
 -178.80  101.76 -143.20     0.000259       0.9998    1.0134    0.9870
 -178.72  104.61 -146.88     0.000818       1.0002    1.0129    0.9870
 -178.80  107.05 -151.79     0.000833       1.0007    1.0124    0.9871
 -179.02  108.96 -158.12     0.000565       1.0012    1.0118    0.9871
 -179.36  110.29 -165.98     0.000375       1.0016    1.0114    0.9871
 -178.00  101.80   49.53     0.000404       0.9978    1.0152    0.9872
 -177.56  106.30   46.73     0.000840       0.9983    1.0146    0.9873
 -177.43  110.45   42.70     0.001101       0.9989    1.0138    0.9874
 -177.61  114.04   37.13     0.000734       0.9997    1.0130    0.9875
 -178.75  118.85 -160.39     0.000427       1.0013    1.0112    0.9876
 -179.21   92.86   60.66     0.000070       0.9958    1.0171    0.9874
 -176.55  104.61   58.12     0.000011       0.9962    1.0164    0.9876
 -175.81  110.59   55.29     0.000551       0.9967    1.0157    0.9878
 -175.61  116.29   51.06     0.000443       0.9975    1.0147    0.9879
 -177.94  127.89   25.13     0.000399       1.0008    1.0111    0.9882
 -176.51   99.56   67.42     0.000299       0.9946    1.0179    0.9878
 -174.62  106.65   65.89     0.000252       0.9948    1.0174    0.9880
 -173.43  114.39   63.19     0.000139       0.9953    1.0166    0.9883
    3.04   42.37  149.59     0.000463       1.0003    1.0109    0.9889
 -178.31   92.93   74.86     0.000458       0.9935    1.0189    0.9879
 -175.02   99.28   74.37     0.000103       0.9935    1.0187    0.9881
    4.10   31.68  -35.18     0.000404       0.9998    1.0108    0.9895
    1.37   29.97  -13.79     0.000613       1.0013    1.0093    0.9895
 -173.52   97.13   80.86     0.000210       0.9928    1.0191    0.9884
 -169.43  104.48   80.25     0.000105       0.9927    1.0186    0.9889
   11.89   30.32  113.93     0.000034       0.9950    1.0148    0.9903
    5.07   19.79  -38.99     0.000358       0.9994    1.0107    0.9901
    1.65   18.41  -15.65     0.001310       1.0011    1.0090    0.9900
 -177.53   90.84   87.08     0.000080       0.9925    1.0196    0.9882
 -172.50   92.78   87.01     0.000536       0.9924    1.0194    0.9885
 -167.26   96.22   86.87     0.000109       0.9922    1.0189    0.9893
    5.65    6.76  -41.15     0.000039       0.9991    1.0106    0.9904
    1.78    6.21  -16.71     0.001490       1.0010    1.0088    0.9903
  179.99   90.36  169.36     0.000145       1.0019    1.0117    0.9866
  179.97   92.92  172.38     0.000161       1.0019    1.0116    0.9866
  179.96   93.39  173.79     0.000850       1.0020    1.0116    0.9866
  179.97   93.75  175.41     0.000146       1.0020    1.0115    0.9866
  179.92   91.07  151.32     0.000338       1.0007    1.0127    0.9867
  179.77   93.19  152.01     0.000403       1.0008    1.0127    0.9867
  179.66   95.22  153.41     0.000062       1.0009    1.0125    0.9867
  179.59   97.10  155.54     0.000355       1.0011    1.0123    0.9867
  179.56   98.78  158.42     0.000441       1.0013    1.0121    0.9868
  179.59  100.19  162.07     0.000782       1.0015    1.0119    0.9868
  179.66  101.29  166.48     0.000271       1.0017    1.0116    0.9868
  179.35   95.24  138.89     0.000388       0.9992    1.0141    0.9869
  179.02   98.61  140.57     0.000432       0.9994    1.0138    0.9869
  178.81  101.77  143.18     0.000764       0.9998    1.0134    0.9870
  178.74  104.62  146.86     0.000633       1.0002    1.0129    0.9870
  179.04  108.97  158.10     0.000402       1.0012    1.0118    0.9871
  178.69   97.12  128.69     0.000389       0.9975    1.0156    0.9872
  178.00  101.80  130.45     0.000702       0.9978    1.0152    0.9872
  177.57  106.30  133.25     0.000649       0.9983    1.0146    0.9873
  178.10  116.89  150.36     0.000440       1.0005    1.0121    0.9876
  178.77  118.85  160.36     0.000541       1.0013    1.0112    0.9876
  177.74   98.67  120.15     0.000063       0.9959    1.0169    0.9875
  176.56  104.61  121.86     0.000250       0.9962    1.0164    0.9876
  175.82  110.59  124.69     0.000058       0.9967    1.0157    0.9878
  177.96  127.89  154.85     0.000854       1.0008    1.0111    0.9882
  178.79   93.10  111.89     0.000065       0.9945    1.0182    0.9876
  176.50   99.56  112.58     0.000089       0.9946    1.0179    0.9878
   -3.03   42.38   30.43     0.000806       1.0003    1.0109    0.9889
   -1.03   40.75   11.56     0.000123       1.0014    1.0098    0.9889
  178.30   92.91  105.15     0.000250       0.9935    1.0189    0.9879
   -4.10   31.68   35.22     0.000444       0.9998    1.0108    0.9895
   -1.37   29.98   13.83     0.000677       1.0013    1.0093    0.9895
  177.83   92.14   98.89     0.000006       0.9928    1.0194    0.9881
  173.52   97.09   99.14     0.000388       0.9928    1.0191    0.9884
  169.43  104.45   99.75     0.000412       0.9927    1.0186    0.9889
   -5.07   19.80   39.02     0.000165       0.9994    1.0107    0.9901
   -1.66   18.41   15.70     0.001189       1.0011    1.0090    0.9900
  177.53   90.79   92.93     0.000200       0.9925    1.0196    0.9882
  -19.08   29.06   82.63     0.000182       0.9924    1.0167    0.9911
   -5.61    6.76   41.13     0.000021       0.9991    1.0106    0.9904
   -1.78    6.22   16.74     0.001447       1.0010    1.0088    0.9903
  179.97   92.37  171.20     0.000159       1.0019    1.0116    0.9866
  179.96   92.92  172.37     0.000795       1.0019    1.0116    0.9866
  179.96   93.39  173.79     0.000143       1.0020    1.0116    0.9866
  179.92   91.07  151.32     0.000408       1.0007    1.0127    0.9867
  179.78   93.19  152.02     0.000067       1.0008    1.0127    0.9867
  179.67   95.22  153.42     0.000416       1.0009    1.0125    0.9867
  179.59   97.10  155.54     0.000419       1.0011    1.0123    0.9867
  179.56   98.78  158.42     0.000260       1.0013    1.0121    0.9868
  179.58  100.19  162.07     0.000273       1.0015    1.0119    0.9868
  179.77   91.76  138.07     0.000466       0.9991    1.0142    0.9869
  179.36   95.24  138.89     0.000546       0.9992    1.0141    0.9869
  179.02   98.61  140.57     0.000651       0.9994    1.0138    0.9869
  178.81  101.77  143.19     0.000354       0.9998    1.0134    0.9870
  178.82  107.05  151.77     0.000392       1.0007    1.0124    0.9871
  179.04  108.97  158.09     0.000555       1.0012    1.0118    0.9871
  179.54   92.38  127.85     0.000360       0.9973    1.0158    0.9871
  178.69   97.13  128.70     0.000493       0.9975    1.0156    0.9872
  178.01  101.81  130.46     0.000456       0.9978    1.0152    0.9872
  178.09  116.89  150.36     0.000629       1.0005    1.0121    0.9876
  178.76  118.85  160.36     0.000219       1.0013    1.0112    0.9876
  177.75   98.68  120.15     0.000192       0.9959    1.0169    0.9875
  176.80  125.22  143.24     0.000068       0.9997    1.0123    0.9882
  177.95  127.89  154.85     0.000626       1.0008    1.0111    0.9882
  178.79   93.10  111.89     0.000161       0.9945    1.0182    0.9876
  176.51   99.57  112.58     0.000007       0.9946    1.0179    0.9878
   -3.04   42.38   30.44     0.000486       1.0003    1.0109    0.9889
  169.96  128.37  113.45     0.000111       0.9948    1.0161    0.9893
   -4.11   31.68   35.22     0.000295       0.9998    1.0108    0.9895
  177.83   92.15   98.89     0.000338       0.9928    1.0194    0.9881
  173.52   97.11   99.14     0.000381       0.9928    1.0191    0.9884
  169.44  104.48   99.76     0.000463       0.9927    1.0186    0.9889
  -14.16   44.32   74.48     0.000146       0.9935    1.0165    0.9902
   -5.09   19.80   39.03     0.000116       0.9994    1.0107    0.9901
   -1.68   18.41   15.72     0.000001       1.0011    1.0090    0.9900
  177.53   90.80   92.93     0.000189       0.9925    1.0196    0.9882
   -5.67    6.76   41.18     0.000144       0.9991    1.0106    0.9904
   -1.83    6.22   16.79     0.000088       1.0010    1.0088    0.9903
  179.98   91.75  170.29     0.000155       1.0019    1.0116    0.9866
  179.96   92.37  171.20     0.000744       1.0019    1.0116    0.9866
  179.95   92.92  172.37     0.000141       1.0020    1.0116    0.9866
  179.99   94.12  179.04     0.000160       1.0020    1.0115    0.9866
  179.93   91.07  151.33     0.000070       1.0007    1.0127    0.9867
  179.79   93.19  152.02     0.000429       1.0008    1.0127    0.9867
  179.67   95.22  153.42     0.000402       1.0009    1.0125    0.9867
  179.55   98.77  158.41     0.000291       1.0013    1.0121    0.9868
  179.58  100.19  162.06     0.000157       1.0015    1.0119    0.9868
  179.92  102.44  177.12     0.000507       1.0020    1.0114    0.9868
  179.78   91.76  138.08     0.000587       0.9991    1.0142    0.9869
  179.37   95.25  138.90     0.000569       0.9992    1.0141    0.9869
  179.03   98.61  140.58     0.000072       0.9994    1.0138    0.9869
  178.73  104.62  146.86     0.000199       1.0002    1.0129    0.9870
  178.81  107.05  151.76     0.000574       1.0007    1.0124    0.9871
  179.03  108.96  158.09     0.000109       1.0012    1.0118    0.9871
  179.78  110.97  175.12     0.001149       1.0019    1.0111    0.9872
  179.55   92.38  127.85     0.000318       0.9973    1.0158    0.9871
  178.70   97.14  128.70     0.000456       0.9975    1.0156    0.9871
  177.62  114.04  142.84     0.000062       0.9997    1.0130    0.9875
  178.08  116.88  150.35     0.000321       1.0005    1.0120    0.9876
  179.57  119.85  173.01     0.002138       1.0017    1.0107    0.9877
  177.76   98.69  120.15     0.000003       0.9959    1.0169    0.9875
  176.57  104.63  121.87     0.000018       0.9962    1.0164    0.9876
  176.79  125.22  143.23     0.000138       0.9997    1.0123    0.9882
  177.94  127.89  154.84     0.000443       1.0008    1.0111    0.9882
  179.29  129.22  170.76     0.003654       1.0016    1.0103    0.9882
  178.80   93.12  111.90     0.000146       0.9945    1.0182    0.9876
  173.82  129.06  127.56     0.000085       0.9973    1.0141    0.9888
   -4.83   45.74   43.36     0.000034       0.9988    1.0125    0.9889
   -3.05   42.38   30.44     0.000972       1.0003    1.0109    0.9889
   -1.05   40.76   11.57     0.005571       1.0014    1.0098    0.9889
  172.19  107.17  106.79     0.000174       0.9936    1.0181    0.9885
   -8.86   42.02   59.47     0.000208       0.9961    1.0145    0.9895
   -6.71   35.48   49.37     0.000323       0.9979    1.0127    0.9896
   -4.13   31.69   35.23     0.001533       0.9998    1.0108    0.9895
   -1.40   29.98   13.84     0.008002       1.0013    1.0093    0.9895
  177.83   92.17   98.89     0.000394       0.9928    1.0194    0.9881
  173.52   97.14   99.14     0.000054       0.9928    1.0191    0.9884
  166.34  117.33  101.28     0.000011       0.9928    1.0178    0.9897
  -11.88   30.32   66.07     0.000060       0.9950    1.0148    0.9903
   -8.57   23.19   54.43     0.000508       0.9971    1.0128    0.9902
   -5.12   19.80   39.05     0.001875       0.9994    1.0107    0.9901
   -1.71   18.41   15.74     0.010560       1.0011    1.0090    0.9900
  177.53   90.82   92.93     0.000147       0.9925    1.0196    0.9882
  162.02  107.00   93.46     0.000106       0.9919    1.0180    0.9903
  -14.43   12.14   71.03     0.000287       0.9943    1.0150    0.9909
   -9.87    8.23   57.59     0.000658       0.9966    1.0129    0.9906
   -5.76    6.77   41.26     0.002033       0.9991    1.0106    0.9904
   -1.91    6.22   16.86     0.012711       1.0010    1.0088    0.9903
  179.99   91.07  169.68     0.000152       1.0019    1.0117    0.9866
  179.97   91.75  170.29     0.000701       1.0019    1.0116    0.9866
  179.96   92.37  171.20     0.000140       1.0019    1.0116    0.9866
  179.98   93.99  177.17     0.000162       1.0020    1.0115    0.9866
  180.00   94.12  179.04     0.000959       1.0020    1.0115    0.9866
  179.93   91.08  151.33     0.000420       1.0007    1.0127    0.9867
  179.79   93.20  152.03     0.000384       1.0008    1.0127    0.9867
  179.58   97.10  155.53     0.000303       1.0011    1.0123    0.9867
  179.55   98.77  158.41     0.000326       1.0013    1.0121    0.9868
  179.78  102.05  171.56     0.000549       1.0019    1.0115    0.9868
  179.93  102.44  177.12     0.002815       1.0020    1.0114    0.9868
  179.79   91.77  138.08     0.000518       0.9991    1.0142    0.9869
  178.73  104.61  146.85     0.000329       1.0002    1.0129    0.9870
  178.81  107.04  151.76     0.000157       1.0007    1.0124    0.9871
  179.03  108.96  158.09     0.000175       1.0012    1.0118    0.9871
  179.37  110.29  165.95     0.001264       1.0016    1.0114    0.9871
  179.79  110.97  175.13     0.004569       1.0019    1.0111    0.9872
  179.56   92.39  127.85     0.000401       0.9973    1.0158    0.9871
  177.44  110.45  137.28     0.000104       0.9989    1.0138    0.9874
  177.62  114.03  142.84     0.000231       0.9997    1.0130    0.9875
  178.08  116.88  150.35     0.000898       1.0005    1.0120    0.9876
  178.76  118.85  160.35     0.002068       1.0013    1.0112    0.9876
  179.57  119.85  173.01     0.006236       1.0017    1.0107    0.9877
  175.62  116.29  128.92     0.000100       0.9975    1.0147    0.9879
  175.96  121.28  134.90     0.000539       0.9985    1.0136    0.9881
  176.78  125.21  143.22     0.001585       0.9997    1.0123    0.9882
  177.94  127.88  154.84     0.002735       1.0008    1.0111    0.9882
  179.29  129.22  170.76     0.008053       1.0016    1.0103    0.9883
  173.44  114.41  116.81     0.000066       0.9953    1.0166    0.9883
  173.17  122.19  121.13     0.000018       0.9961    1.0155    0.9886
  173.81  129.05  127.55     0.001002       0.9973    1.0141    0.9888
   -4.84   45.75   43.37     0.001955       0.9988    1.0125    0.9889
   -3.05   42.38   30.45     0.002990       1.0003    1.0109    0.9889
   -1.05   40.76   11.58     0.009874       1.0014    1.0098    0.9889
  175.03   99.32  105.64     0.000307       0.9935    1.0187    0.9881
  172.19  107.18  106.79     0.000114       0.9936    1.0181    0.9885
  170.31  117.20  109.11     0.000314       0.9940    1.0173    0.9890
  169.95  128.36  113.45     0.000013       0.9948    1.0161    0.9893
   -8.87   42.03   59.48     0.000771       0.9961    1.0145    0.9895
   -6.72   35.49   49.38     0.001812       0.9979    1.0127    0.9896
   -4.14   31.69   35.24     0.002644       0.9998    1.0108    0.9895
   -1.41   29.98   13.85     0.011943       1.0013    1.0093    0.9895
  177.84   92.19   98.89     0.000150       0.9928    1.0194    0.9881
  166.33  117.33  101.28     0.000373       0.9928    1.0178    0.9897
  -14.18   44.35   74.48     0.000114       0.9935    1.0165    0.9902
  -11.90   30.34   66.08     0.000634       0.9950    1.0148    0.9903
   -8.59   23.20   54.45     0.001322       0.9971    1.0128    0.9902
   -5.14   19.81   39.07     0.002264       0.9994    1.0107    0.9901
   -1.74   18.41   15.76     0.013377       1.0011    1.0090    0.9900
  177.53   90.85   92.93     0.000055       0.9925    1.0196    0.9882
  172.50   92.80   93.00     0.000747       0.9924    1.0194    0.9885
  167.26   96.27   93.14     0.000957       0.9922    1.0189    0.9893
  162.02  107.04   93.46     0.000289       0.9919    1.0180    0.9903
  -19.13   29.18   82.66     0.000316       0.9924    1.0167    0.9911
  -14.50   12.18   71.09     0.000661       0.9943    1.0150    0.9909
   -9.95    8.25   57.67     0.000822       0.9966    1.0129    0.9906
   -5.85    6.78   41.34     0.002160       0.9991    1.0106    0.9904
   -2.00    6.22   16.94     0.013719       1.0010    1.0088    0.9903
 -179.99   90.36  169.37     0.000148       1.0019    1.0117    0.9866
  179.99   91.07  169.67     0.000670       1.0019    1.0117    0.9866
  179.97   91.74  170.29     0.000141       1.0019    1.0116    0.9866
  179.96   93.75  175.41     0.000164       1.0020    1.0115    0.9866
  179.98   93.99  177.17     0.000938       1.0020    1.0115    0.9866
 -179.99   94.12  179.04     0.000156       1.0020    1.0115    0.9866
  179.94   91.08  151.34     0.000361       1.0007    1.0127    0.9867
  179.66   95.22  153.41     0.000311       1.0009    1.0125    0.9867
  179.57   97.10  155.53     0.000391       1.0011    1.0123    0.9867
  179.54   98.77  158.41     0.000009       1.0013    1.0121    0.9868
  179.66  101.29  166.48     0.000529       1.0017    1.0116    0.9868
  179.78  102.05  171.56     0.002301       1.0019    1.0115    0.9868
  179.93  102.44  177.12     0.000411       1.0020    1.0114    0.9868
  178.80  101.76  143.18     0.000221       0.9998    1.0134    0.9870
  178.72  104.61  146.85     0.000137       1.0002    1.0129    0.9870
  178.80  107.04  151.76     0.000661       1.0007    1.0124    0.9871
  179.03  108.96  158.09     0.001048       1.0012    1.0118    0.9871
  179.37  110.29  165.95     0.002586       1.0016    1.0114    0.9871
  179.79  110.97  175.13     0.000679       1.0019    1.0111    0.9872
  177.57  106.30  133.25     0.000331       0.9983    1.0146    0.9873
  177.43  110.44  137.28     0.000631       0.9989    1.0138    0.9874
  177.61  114.03  142.83     0.001335       0.9997    1.0130    0.9875
  178.08  116.88  150.35     0.001300       1.0005    1.0120    0.9876
  178.76  118.85  160.35     0.001880       1.0013    1.0112    0.9876
  179.58  119.85  173.01     0.000899       1.0017    1.0107    0.9877
  179.23   92.89  119.35     0.000033       0.9958    1.0171    0.9874
  175.61  116.28  128.91     0.000943       0.9975    1.0147    0.9880
  175.96  121.27  134.90     0.001337       0.9985    1.0136    0.9881
  176.78  125.21  143.22     0.001027       0.9997    1.0123    0.9882
  177.94  127.88  154.84     0.000950       1.0008    1.0111    0.9882
  179.30  129.22  170.76     0.000961       1.0016    1.0103    0.9883
  174.63  106.67  114.11     0.000307       0.9948    1.0174    0.9880
  173.43  114.39  116.80     0.000237       0.9953    1.0166    0.9883
  173.16  122.17  121.12     0.000624       0.9961    1.0155    0.9886
  173.80  129.04  127.54     0.000641       0.9973    1.0141    0.9888
   -4.84   45.75   43.37     0.000593       0.9988    1.0125    0.9889
   -3.05   42.38   30.45     0.000308       1.0003    1.0109    0.9889
   -1.04   40.76   11.57     0.000803       1.0014    1.0098    0.9889
  178.32   92.97  105.16     0.000164       0.9935    1.0189    0.9879
  175.04   99.32  105.64     0.000528       0.9935    1.0187    0.9881
  170.30  117.17  109.10     0.000449       0.9940    1.0173    0.9890
  169.94  128.33  113.44     0.000041       0.9948    1.0161    0.9893
   -6.72   35.49   49.39     0.000015       0.9979    1.0127    0.9896
   -1.40   29.98   13.85     0.000474       1.0013    1.0093    0.9895
  166.33  117.29  101.27     0.000190       0.9928    1.0178    0.9897
  -14.19   44.39   74.50     0.000246       0.9935    1.0165    0.9902
  -11.91   30.35   66.09     0.000069       0.9950    1.0148    0.9903
   -5.14   19.81   39.07     0.000166       0.9994    1.0107    0.9901
   -1.73   18.41   15.75     0.000284       1.0011    1.0090    0.9900
  177.53   90.87   92.93     0.000010       0.9925    1.0196    0.9882
  172.50   92.80   93.00     0.001046       0.9924    1.0194    0.9885
  167.26   96.26   93.14     0.000838       0.9922    1.0189    0.9893
   -5.85    6.78   41.34     0.000197       0.9991    1.0106    0.9904
   -2.02    6.22   16.96     0.000010       1.0010    1.0088    0.9903
 -180.00   90.36  169.36     0.000654       1.0019    1.0117    0.9866
  179.98   91.07  169.67     0.000143       1.0019    1.0117    0.9866
  179.96   93.39  173.79     0.000163       1.0020    1.0116    0.9866
  179.97   93.75  175.41     0.000899       1.0020    1.0115    0.9866
  179.99   93.99  177.18     0.000151       1.0020    1.0115    0.9866
  179.78   93.19  152.01     0.000321       1.0008    1.0127    0.9867
  179.65   95.22  153.41     0.000403       1.0009    1.0125    0.9867
  179.57   97.10  155.53     0.000049       1.0011    1.0123    0.9867
  179.54   98.77  158.41     0.000217       1.0013    1.0121    0.9868
  179.58  100.18  162.07     0.000481       1.0015    1.0119    0.9868
  179.66  101.29  166.48     0.001522       1.0017    1.0116    0.9868
  179.79  102.05  171.57     0.000317       1.0019    1.0115    0.9868
  179.01   98.60  140.56     0.000283       0.9994    1.0138    0.9869
  178.79  101.76  143.17     0.000259       0.9998    1.0134    0.9870
  178.72  104.61  146.85     0.000818       1.0002    1.0129    0.9870
  178.81  107.04  151.76     0.000833       1.0007    1.0124    0.9871
  179.04  108.97  158.09     0.000565       1.0012    1.0118    0.9871
  179.38  110.29  165.95     0.000375       1.0016    1.0114    0.9871
  178.00  101.80  130.45     0.000404       0.9978    1.0152    0.9872
  177.56  106.30  133.24     0.000840       0.9983    1.0146    0.9873
  177.43  110.44  137.27     0.001101       0.9989    1.0138    0.9874
  177.61  114.03  142.83     0.000734       0.9997    1.0130    0.9875
  178.77  118.85  160.36     0.000427       1.0013    1.0112    0.9876
  179.23   92.89  119.35     0.000070       0.9958    1.0171    0.9874
  176.56  104.62  121.87     0.000011       0.9962    1.0164    0.9876
  175.81  110.58  124.69     0.000551       0.9967    1.0157    0.9878
  175.61  116.27  128.91     0.000443       0.9975    1.0147    0.9880
  177.95  127.88  154.84     0.000399       1.0008    1.0111    0.9882
  176.52   99.58  112.59     0.000299       0.9946    1.0179    0.9878
  174.62  106.65  114.11     0.000252       0.9948    1.0174    0.9880
  173.43  114.38  116.80     0.000139       0.9953    1.0166    0.9883
   -3.04   42.38   30.45     0.000463       1.0003    1.0109    0.9889
  178.31   92.96  105.15     0.000458       0.9935    1.0189    0.9879
  175.03   99.30  105.64     0.000103       0.9935    1.0187    0.9881
   -4.13   31.69   35.24     0.000404       0.9998    1.0108    0.9895
   -1.39   29.98   13.84     0.000613       1.0013    1.0093    0.9895
  173.52   97.14   99.14     0.000210       0.9928    1.0191    0.9884
  169.43  104.48   99.75     0.000105       0.9927    1.0186    0.9889
  -11.91   30.36   66.09     0.000034       0.9950    1.0148    0.9903
   -5.12   19.81   39.06     0.000358       0.9994    1.0107    0.9901
   -1.71   18.41   15.74     0.001310       1.0011    1.0090    0.9900
  177.53   90.85   92.93     0.000080       0.9925    1.0196    0.9882
  172.50   92.78   93.00     0.000536       0.9924    1.0194    0.9885
  167.26   96.22   93.14     0.000109       0.9922    1.0189    0.9893
   -5.78    6.77   41.28     0.000039       0.9991    1.0106    0.9904
   -1.96    6.22   16.90     0.001490       1.0010    1.0088    0.9903
 -179.99   89.64  169.36     0.000145       1.0019    1.0117    0.9866
 -179.93   87.07  172.38     0.000161       1.0019    1.0116    0.9866
 -179.94   86.61  173.79     0.000850       1.0020    1.0116    0.9866
 -179.96   86.25  175.41     0.000146       1.0020    1.0115    0.9866
 -179.92   88.92  151.32     0.000338       1.0007    1.0127    0.9867
 -179.77   86.81  152.01     0.000403       1.0008    1.0127    0.9867
 -179.64   84.78  153.41     0.000062       1.0009    1.0125    0.9867
 -179.56   82.90  155.54     0.000355       1.0011    1.0123    0.9867
 -179.53   81.23  158.42     0.000441       1.0013    1.0121    0.9868
 -179.57   79.81  162.07     0.000782       1.0015    1.0119    0.9868
 -179.65   78.70  166.48     0.000271       1.0017    1.0116    0.9868
 -179.35   84.76  138.89     0.000388       0.9992    1.0141    0.9869
 -179.00   81.40  140.57     0.000432       0.9994    1.0138    0.9869
 -178.78   78.24  143.19     0.000764       0.9998    1.0134    0.9870
 -178.71   75.39  146.87     0.000633       1.0002    1.0129    0.9870
 -179.03   71.03  158.10     0.000402       1.0012    1.0118    0.9871
 -178.69   82.88  128.70     0.000389       0.9975    1.0156    0.9871
 -177.99   78.20  130.46     0.000702       0.9978    1.0152    0.9872
 -177.55   73.71  133.26     0.000649       0.9983    1.0146    0.9873
 -178.08   63.12  150.37     0.000440       1.0005    1.0120    0.9876
 -178.77   61.15  160.37     0.000541       1.0013    1.0112    0.9876
 -177.74   81.33  120.15     0.000063       0.9959    1.0169    0.9874
 -176.55   75.40  121.87     0.000250       0.9962    1.0164    0.9876
 -175.79   69.43  124.70     0.000058       0.9967    1.0157    0.9878
 -177.95   52.11  154.86     0.000854       1.0008    1.0111    0.9882
 -178.80   86.89  111.89     0.000065       0.9945    1.0182    0.9876
 -176.50   80.44  112.58     0.000089       0.9946    1.0179    0.9878
 -176.97   42.38  -30.43     0.000806       1.0003    1.0109    0.9889
 -178.98   40.76  -11.55     0.000123       1.0014    1.0098    0.9889
 -178.31   87.07  105.15     0.000250       0.9935    1.0189    0.9879
 -175.90   31.69  144.79     0.000444       0.9998    1.0108    0.9895
 -178.64   29.98  166.19     0.000677       1.0013    1.0093    0.9895
 -177.83   87.84   98.89     0.000006       0.9928    1.0194    0.9881
 -173.52   82.90   99.14     0.000388       0.9928    1.0191    0.9884
 -169.43   75.57   99.76     0.000412       0.9927    1.0186    0.9889
 -174.93   19.80  141.00     0.000165       0.9994    1.0107    0.9901
 -178.35   18.42  164.32     0.001189       1.0011    1.0090    0.9900
 -177.53   89.19   92.93     0.000200       0.9925    1.0196    0.9882
 -160.86   29.26  -82.66     0.000182       0.9924    1.0167    0.9911
 -174.38    6.77  138.88     0.000021       0.9991    1.0106    0.9904
 -178.23    6.22  163.29     0.001447       1.0010    1.0088    0.9903
 -179.94   87.63  171.20     0.000159       1.0019    1.0116    0.9866
 -179.94   87.07  172.38     0.000795       1.0019    1.0116    0.9866
 -179.95   86.61  173.79     0.000143       1.0020    1.0116    0.9866
 -179.92   88.93  151.32     0.000408       1.0007    1.0127    0.9867
 -179.76   86.81  152.02     0.000067       1.0008    1.0127    0.9867
 -179.63   84.78  153.42     0.000416       1.0009    1.0125    0.9867
 -179.56   82.90  155.54     0.000419       1.0011    1.0123    0.9867
 -179.54   81.23  158.42     0.000260       1.0013    1.0121    0.9868
 -179.57   79.81  162.07     0.000273       1.0015    1.0119    0.9868
 -179.77   88.24  138.07     0.000466       0.9991    1.0142    0.9869
 -179.34   84.76  138.90     0.000546       0.9992    1.0141    0.9869
 -178.99   81.40  140.58     0.000651       0.9994    1.0138    0.9869
 -178.78   78.24  143.19     0.000354       0.9998    1.0134    0.9870
 -178.81   72.95  151.77     0.000392       1.0007    1.0124    0.9871
 -179.04   71.03  158.10     0.000555       1.0012    1.0118    0.9871
 -179.54   87.62  127.85     0.000360       0.9973    1.0158    0.9871
 -178.68   82.88  128.70     0.000493       0.9975    1.0156    0.9871
 -177.98   78.21  130.47     0.000456       0.9978    1.0152    0.9872
 -178.09   63.11  150.37     0.000629       1.0005    1.0120    0.9876
 -178.77   61.15  160.37     0.000219       1.0013    1.0112    0.9876
 -177.73   81.34  120.15     0.000192       0.9959    1.0169    0.9874
 -176.80   54.78  143.24     0.000068       0.9997    1.0123    0.9882
 -177.96   52.11  154.86     0.000626       1.0008    1.0111    0.9882
 -178.79   86.90  111.89     0.000161       0.9945    1.0182    0.9876
 -176.50   80.46  112.58     0.000007       0.9946    1.0179    0.9878
 -176.97   42.38  -30.43     0.000486       1.0003    1.0109    0.9889
 -169.94   51.68  113.44     0.000111       0.9948    1.0161    0.9893
 -175.90   31.69  144.79     0.000295       0.9998    1.0108    0.9895
 -177.83   87.85   98.89     0.000338       0.9928    1.0194    0.9881
 -173.52   82.92   99.14     0.000381       0.9928    1.0191    0.9884
 -169.42   75.59   99.76     0.000463       0.9927    1.0186    0.9889
 -165.81   44.40  -74.49     0.000146       0.9935    1.0165    0.9902
 -174.93   19.80  140.99     0.000116       0.9994    1.0107    0.9901
 -178.34   18.42  164.31     0.000001       1.0011    1.0090    0.9900
 -177.53   89.20   92.93     0.000189       0.9925    1.0196    0.9882
 -174.37    6.77  138.87     0.000144       0.9991    1.0106    0.9904
 -178.20    6.22  163.26     0.000088       1.0011    1.0088    0.9903
 -179.95   88.25  170.29     0.000155       1.0019    1.0116    0.9866
 -179.94   87.63  171.20     0.000744       1.0019    1.0116    0.9866
 -179.95   87.07  172.37     0.000141       1.0019    1.0116    0.9866
 -179.99   85.88  179.04     0.000160       1.0020    1.0115    0.9866
 -179.91   88.93  151.33     0.000070       1.0007    1.0127    0.9867
 -179.75   86.81  152.03     0.000429       1.0008    1.0127    0.9867
 -179.64   84.78  153.42     0.000402       1.0009    1.0125    0.9867
 -179.55   81.23  158.42     0.000291       1.0013    1.0121    0.9868
 -179.58   79.81  162.07     0.000157       1.0015    1.0119    0.9868
 -179.92   77.56  177.12     0.000507       1.0020    1.0114    0.9868
 -179.76   88.25  138.08     0.000587       0.9991    1.0142    0.9869
 -179.33   84.77  138.91     0.000569       0.9992    1.0141    0.9869
 -179.00   81.40  140.58     0.000072       0.9994    1.0138    0.9869
 -178.72   75.39  146.86     0.000199       1.0002    1.0129    0.9870
 -178.81   72.95  151.77     0.000574       1.0007    1.0124    0.9871
 -179.04   71.03  158.10     0.000109       1.0012    1.0118    0.9871
 -179.78   69.03  175.13     0.001149       1.0019    1.0111    0.9872
 -179.53   87.63  127.86     0.000318       0.9973    1.0158    0.9871
 -178.67   82.89  128.71     0.000456       0.9975    1.0156    0.9871
 -177.62   65.96  142.85     0.000062       0.9997    1.0130    0.9875
 -178.09   63.11  150.36     0.000321       1.0005    1.0120    0.9876
 -179.58   60.15  173.02     0.002138       1.0017    1.0107    0.9877
 -177.73   81.35  120.16     0.000003       0.9959    1.0169    0.9874
 -176.54   75.41  121.87     0.000018       0.9962    1.0164    0.9876
 -176.80   54.78  143.24     0.000138       0.9997    1.0123    0.9882
 -177.96   52.11  154.86     0.000443       1.0008    1.0111    0.9882
 -179.30   50.78  170.78     0.003654       1.0016    1.0103    0.9882
 -178.78   86.92  111.90     0.000146       0.9945    1.0182    0.9876
 -173.82   50.95  127.56     0.000085       0.9973    1.0141    0.9888
 -175.18   45.74  -43.35     0.000034       0.9988    1.0125    0.9889
 -176.97   42.38  -30.43     0.000972       1.0003    1.0109    0.9889
 -178.97   40.76  -11.56     0.005571       1.0014    1.0098    0.9889
 -172.16   72.91  106.79     0.000174       0.9936    1.0181    0.9885
 -171.15   42.03  -59.46     0.000208       0.9961    1.0145    0.9895
 -173.31   35.48  -49.36     0.000323       0.9979    1.0127    0.9896
 -175.90   31.69  144.78     0.001533       0.9998    1.0108    0.9895
 -178.62   29.98  166.18     0.008002       1.0013    1.0093    0.9895
 -177.83   87.88   98.89     0.000394       0.9928    1.0194    0.9881
 -173.51   82.94   99.15     0.000054       0.9928    1.0191    0.9884
 -166.32   62.79  101.27     0.000011       0.9928    1.0177    0.9897
 -168.13   30.33  -66.06     0.000060       0.9950    1.0148    0.9903
 -171.47   23.19  -54.40     0.000508       0.9971    1.0128    0.9902
 -174.92   19.80  140.98     0.001875       0.9994    1.0107    0.9901
 -178.32   18.42  164.29     0.010560       1.0011    1.0090    0.9900
 -177.53   89.22   92.93     0.000147       0.9925    1.0196    0.9882
 -162.01   73.23   93.46     0.000106       0.9919    1.0180    0.9903
 -165.64   12.12  -70.96     0.000287       0.9943    1.0150    0.9909
 -170.23    8.22  -57.50     0.000658       0.9966    1.0129    0.9906
 -174.33    6.77  138.82     0.002033       0.9991    1.0106    0.9904
 -178.13    6.23  163.19     0.012711       1.0011    1.0088    0.9903
 -179.96   88.93  169.68     0.000152       1.0019    1.0117    0.9866
 -179.95   88.25  170.29     0.000701       1.0019    1.0116    0.9866
 -179.95   87.63  171.20     0.000140       1.0019    1.0116    0.9866
 -179.97   86.00  177.17     0.000162       1.0020    1.0115    0.9866
 -179.98   85.88  179.04     0.000959       1.0020    1.0115    0.9866
 -179.90   88.93  151.34     0.000420       1.0007    1.0127    0.9867
 -179.76   86.81  152.02     0.000384       1.0008    1.0127    0.9867
 -179.57   82.90  155.54     0.000303       1.0011    1.0123    0.9867
 -179.55   81.22  158.41     0.000326       1.0013    1.0121    0.9868
 -179.77   77.94  171.56     0.000549       1.0019    1.0115    0.9868
 -179.91   77.56  177.12     0.002815       1.0020    1.0114    0.9868
 -179.76   88.25  138.09     0.000518       0.9991    1.0142    0.9869
 -178.73   75.38  146.86     0.000329       1.0002    1.0129    0.9870
 -178.81   72.95  151.77     0.000157       1.0007    1.0124    0.9871
 -179.04   71.03  158.09     0.000175       1.0012    1.0118    0.9871
 -179.37   69.71  165.95     0.001264       1.0016    1.0114    0.9871
 -179.78   69.03  175.13     0.004569       1.0019    1.0111    0.9872
 -179.53   87.64  127.86     0.000401       0.9973    1.0158    0.9871
 -177.44   69.55  137.29     0.000104       0.9989    1.0138    0.9874
 -177.63   65.96  142.85     0.000231       0.9997    1.0130    0.9875
 -178.09   63.11  150.36     0.000898       1.0005    1.0120    0.9876
 -178.76   61.15  160.36     0.002068       1.0013    1.0112    0.9876
 -179.57   60.15  173.02     0.006236       1.0017    1.0107    0.9876
 -175.62   63.71  128.92     0.000100       0.9975    1.0147    0.9880
 -175.98   58.72  134.91     0.000539       0.9985    1.0136    0.9881
 -176.80   54.78  143.23     0.001585       0.9997    1.0123    0.9882
 -177.95   52.11  154.85     0.002735       1.0008    1.0111    0.9882
 -179.29   50.78  170.77     0.008053       1.0016    1.0103    0.9882
 -173.43   65.62  116.80     0.000066       0.9953    1.0166    0.9883
 -173.17   57.82  121.13     0.000018       0.9961    1.0155    0.9886
 -173.82   50.95  127.56     0.001002       0.9973    1.0141    0.9888
 -175.18   45.74  -43.36     0.001955       0.9988    1.0125    0.9889
 -176.96   42.38  -30.44     0.002990       1.0003    1.0109    0.9889
 -178.96   40.76  -11.56     0.009874       1.0014    1.0098    0.9889
 -175.01   80.77  105.64     0.000307       0.9935    1.0187    0.9881
 -172.17   72.90  106.79     0.000114       0.9936    1.0181    0.9885
 -170.30   62.86  109.10     0.000314       0.9940    1.0173    0.9890
 -169.95   51.66  113.45     0.000013       0.9948    1.0161    0.9893
 -171.15   42.03  -59.46     0.000771       0.9961    1.0145    0.9895
 -173.31   35.48  -49.37     0.001812       0.9979    1.0127    0.9896
 -175.88   31.69  144.78     0.002644       0.9998    1.0108    0.9895
 -178.61   29.98  166.17     0.011943       1.0013    1.0093    0.9895
 -177.82   87.90   98.89     0.000150       0.9928    1.0194    0.9881
 -166.32   62.77  101.27     0.000373       0.9928    1.0177    0.9897
 -165.83   44.37  -74.48     0.000114       0.9935    1.0165    0.9902
 -168.13   30.33  -66.06     0.000634       0.9950    1.0148    0.9903
 -171.45   23.20  -54.42     0.001322       0.9971    1.0128    0.9902
 -174.90   19.81  140.96     0.002264       0.9994    1.0107    0.9901
 -178.29   18.42  164.27     0.013377       1.0011    1.0090    0.9900
 -177.53   89.25   92.93     0.000055       0.9925    1.0196    0.9882
 -172.49   87.32   93.00     0.000747       0.9924    1.0194    0.9885
 -167.25   83.88   93.14     0.000957       0.9922    1.0189    0.9893
 -162.02   73.20   93.46     0.000289       0.9919    1.0180    0.9903
 -160.90   29.14  -82.64     0.000316       0.9924    1.0167    0.9911
 -165.62   12.13  -70.98     0.000661       0.9943    1.0150    0.9909
 -170.18    8.23  -57.54     0.000822       0.9966    1.0129    0.9906
 -174.26    6.78  138.76     0.002160       0.9991    1.0106    0.9904
 -178.05    6.23  163.12     0.013719       1.0010    1.0088    0.9903
 -179.98   89.64  169.37     0.000148       1.0019    1.0117    0.9866
 -179.97   88.93  169.68     0.000670       1.0019    1.0117    0.9866
 -179.96   88.25  170.29     0.000141       1.0019    1.0116    0.9866
 -179.96   86.25  175.41     0.000164       1.0020    1.0115    0.9866
 -179.97   86.00  177.17     0.000938       1.0020    1.0115    0.9866
 -179.98   85.88  179.04     0.000156       1.0020    1.0115    0.9866
 -179.91   88.93  151.33     0.000361       1.0007    1.0127    0.9867
 -179.65   84.78  153.41     0.000311       1.0009    1.0125    0.9867
 -179.58   82.90  155.53     0.000391       1.0011    1.0123    0.9867
 -179.55   81.22  158.41     0.000009       1.0013    1.0121    0.9868
 -179.65   78.70  166.48     0.000529       1.0017    1.0116    0.9868
 -179.77   77.94  171.56     0.002301       1.0019    1.0115    0.9868
 -179.91   77.56  177.12     0.000411       1.0020    1.0114    0.9868
 -178.80   78.23  143.18     0.000221       0.9998    1.0134    0.9870
 -178.73   75.38  146.86     0.000137       1.0002    1.0129    0.9870
 -178.81   72.95  151.76     0.000661       1.0007    1.0124    0.9871
 -179.03   71.03  158.09     0.001048       1.0012    1.0118    0.9871
 -179.36   69.71  165.95     0.002586       1.0016    1.0114    0.9871
 -179.77   69.03  175.13     0.000679       1.0019    1.0111    0.9872
 -177.57   73.70  133.26     0.000331       0.9983    1.0146    0.9873
 -177.44   69.55  137.29     0.000631       0.9989    1.0138    0.9874
 -177.62   65.96  142.85     0.001335       0.9997    1.0130    0.9875
 -178.08   63.11  150.36     0.001300       1.0005    1.0120    0.9876
 -178.75   61.15  160.36     0.001880       1.0013    1.0112    0.9876
 -179.56   60.15  173.02     0.000899       1.0017    1.0107    0.9876
 -179.20   87.15  119.35     0.000033       0.9958    1.0171    0.9874
 -175.62   63.71  128.92     0.000943       0.9975    1.0147    0.9880
 -175.97   58.72  134.91     0.001337       0.9985    1.0136    0.9881
 -176.79   54.78  143.23     0.001027       0.9997    1.0123    0.9882
 -177.94   52.12  154.85     0.000950       1.0008    1.0111    0.9882
 -179.28   50.78  170.77     0.000961       1.0016    1.0103    0.9882
 -174.62   73.35  114.11     0.000307       0.9948    1.0174    0.9880
 -173.44   65.61  116.80     0.000237       0.9953    1.0166    0.9883
 -173.17   57.82  121.13     0.000624       0.9961    1.0155    0.9886
 -173.82   50.95  127.55     0.000641       0.9973    1.0141    0.9888
 -175.17   45.75  -43.36     0.000593       0.9988    1.0125    0.9889
 -176.95   42.38  -30.44     0.000308       1.0003    1.0109    0.9889
 -178.95   40.76  -11.57     0.000803       1.0014    1.0098    0.9889
 -178.29   87.11  105.15     0.000164       0.9935    1.0189    0.9879
 -175.02   80.75  105.64     0.000528       0.9935    1.0187    0.9881
 -170.30   62.84  109.10     0.000449       0.9940    1.0173    0.9890
 -169.96   51.65  113.45     0.000041       0.9948    1.0161    0.9893
 -173.29   35.49  -49.37     0.000015       0.9979    1.0127    0.9896
 -178.59   29.98  166.16     0.000474       1.0013    1.0093    0.9895
 -166.33   62.74  101.27     0.000190       0.9928    1.0177    0.9897
 -165.83   44.37  -74.48     0.000246       0.9935    1.0165    0.9902
 -168.12   30.34  -66.07     0.000069       0.9950    1.0148    0.9903
 -174.87   19.81  140.95     0.000166       0.9994    1.0107    0.9901
 -178.26   18.42  164.26     0.000284       1.0011    1.0090    0.9900
 -177.53   89.25   92.93     0.000010       0.9925    1.0196    0.9882
 -172.49   87.31   93.00     0.001046       0.9924    1.0194    0.9885
 -167.26   83.86   93.14     0.000838       0.9922    1.0189    0.9893
 -174.20    6.78  138.71     0.000197       0.9991    1.0106    0.9904
 -177.98    6.23  163.06     0.000010       1.0010    1.0088    0.9903
 -179.98   89.64  169.36     0.000654       1.0019    1.0117    0.9866
 -179.97   88.93  169.67     0.000143       1.0019    1.0117    0.9866
 -179.95   86.61  173.79     0.000163       1.0020    1.0116    0.9866
 -179.95   86.25  175.41     0.000899       1.0020    1.0115    0.9866
 -179.96   86.00  177.17     0.000151       1.0020    1.0115    0.9866
 -179.77   86.81  152.02     0.000321       1.0008    1.0127    0.9867
 -179.66   84.78  153.41     0.000403       1.0009    1.0125    0.9867
 -179.58   82.90  155.53     0.000049       1.0011    1.0123    0.9867
 -179.55   81.22  158.41     0.000217       1.0013    1.0121    0.9868
 -179.57   79.81  162.07     0.000481       1.0015    1.0119    0.9868
 -179.65   78.70  166.48     0.001522       1.0017    1.0116    0.9868
 -179.76   77.94  171.57     0.000317       1.0019    1.0115    0.9868
 -179.02   81.39  140.57     0.000283       0.9994    1.0138    0.9869
 -178.80   78.23  143.18     0.000259       0.9998    1.0134    0.9870
 -178.73   75.38  146.86     0.000818       1.0002    1.0129    0.9870
 -178.81   72.95  151.76     0.000833       1.0007    1.0124    0.9871
 -179.03   71.03  158.10     0.000565       1.0012    1.0118    0.9871
 -179.36   69.71  165.96     0.000375       1.0016    1.0114    0.9871
 -178.01   78.19  130.46     0.000404       0.9978    1.0152    0.9872
 -177.57   73.69  133.25     0.000840       0.9983    1.0146    0.9873
 -177.44   69.55  137.29     0.001101       0.9989    1.0138    0.9874
 -177.62   65.96  142.85     0.000734       0.9997    1.0130    0.9875
 -178.74   61.15  160.37     0.000427       1.0013    1.0112    0.9876
 -179.21   87.14  119.35     0.000070       0.9958    1.0171    0.9874
 -176.56   75.38  121.87     0.000011       0.9962    1.0164    0.9876
 -175.82   69.41  124.69     0.000551       0.9967    1.0157    0.9878
 -175.62   63.71  128.92     0.000443       0.9975    1.0147    0.9880
 -177.93   52.12  154.86     0.000399       1.0008    1.0111    0.9882
 -176.51   80.44  112.58     0.000299       0.9946    1.0179    0.9878
 -174.63   73.34  114.11     0.000252       0.9948    1.0174    0.9880
 -173.44   65.61  116.80     0.000139       0.9953    1.0166    0.9883
 -176.94   42.39  -30.44     0.000463       1.0003    1.0109    0.9889
 -178.30   87.09  105.15     0.000458       0.9935    1.0189    0.9879
 -175.02   80.73  105.64     0.000103       0.9935    1.0187    0.9881
 -175.85   31.70  144.77     0.000404       0.9998    1.0108    0.9895
 -178.58   29.98  166.16     0.000613       1.0012    1.0093    0.9895
 -173.52   82.90   99.14     0.000210       0.9928    1.0191    0.9884
 -169.44   75.54   99.76     0.000105       0.9927    1.0186    0.9889
 -168.11   30.35  -66.08     0.000034       0.9950    1.0148    0.9903
 -174.85   19.82  140.94     0.000358       0.9994    1.0107    0.9901
 -178.25   18.42  164.25     0.001310       1.0011    1.0090    0.9900
 -177.53   89.23   92.93     0.000080       0.9925    1.0196    0.9882
 -172.50   87.29   93.00     0.000536       0.9924    1.0194    0.9885
 -167.26   83.83   93.14     0.000109       0.9922    1.0188    0.9893
 -174.16    6.78  138.68     0.000039       0.9991    1.0106    0.9904
 -177.99    6.23  163.07     0.001490       1.0010    1.0088    0.9903
  179.99   89.64 -169.39     0.000145       1.0019    1.0117    0.9866
  179.96   87.07 -172.40     0.000161       1.0019    1.0116    0.9866
  179.96   86.61 -173.82     0.000850       1.0020    1.0116    0.9866
  179.96   86.25 -175.43     0.000146       1.0020    1.0115    0.9866
  179.92   88.92 -151.34     0.000338       1.0007    1.0127    0.9867
  179.78   86.80 -152.04     0.000403       1.0008    1.0127    0.9867
  179.67   84.77 -153.44     0.000062       1.0009    1.0125    0.9867
  179.59   82.89 -155.56     0.000355       1.0011    1.0123    0.9867
  179.56   81.22 -158.44     0.000441       1.0013    1.0121    0.9868
  179.58   79.81 -162.09     0.000782       1.0015    1.0119    0.9868
  179.65   78.70 -166.50     0.000271       1.0017    1.0116    0.9868
  179.36   84.75 -138.91     0.000388       0.9992    1.0141    0.9869
  179.03   81.38 -140.59     0.000432       0.9994    1.0138    0.9869
  178.81   78.22 -143.20     0.000764       0.9998    1.0134    0.9870
  178.73   75.38 -146.87     0.000633       1.0002    1.0129    0.9870
  179.03   71.03 -158.10     0.000402       1.0012    1.0118    0.9871
  178.70   82.86   51.29     0.000389       0.9975    1.0156    0.9871
  178.01   78.18   49.54     0.000702       0.9978    1.0152    0.9872
  177.57   73.69   46.74     0.000649       0.9983    1.0146    0.9873
  178.08   63.12 -150.36     0.000440       1.0005    1.0120    0.9876
  178.75   61.15 -160.37     0.000541       1.0013    1.0112    0.9876
  177.75   81.31   59.85     0.000063       0.9959    1.0169    0.9875
  176.57   75.37   58.13     0.000250       0.9962    1.0164    0.9876
  175.82   69.40   55.31     0.000058       0.9967    1.0157    0.9878
  177.93   52.12   25.15     0.000854       1.0008    1.0111    0.9882
  178.80   86.88   68.11     0.000065       0.9945    1.0182    0.9876
  176.51   80.42   67.42     0.000089       0.9946    1.0179    0.9878
  176.94   42.38 -149.56     0.000806       1.0003    1.0109    0.9889
  178.95   40.76 -168.44     0.000123       1.0014    1.0098    0.9889
  178.30   87.06   74.86     0.000250       0.9935    1.0189    0.9879
  175.86   31.70 -144.76     0.000444       0.9998    1.0108    0.9895
  178.59   29.98 -166.16     0.000677       1.0013    1.0093    0.9895
  177.83   87.83   81.12     0.000006       0.9928    1.0194    0.9881
  173.52   82.87   80.87     0.000388       0.9928    1.0191    0.9884
  169.44   75.52   80.25     0.000412       0.9927    1.0186    0.9889
  174.86   19.81 -140.92     0.000165       0.9994    1.0107    0.9901
  178.27   18.42 -164.25     0.001189       1.0011    1.0090    0.9900
  177.53   89.18   87.08     0.000200       0.9925    1.0196    0.9882
  160.86   29.21  -97.32     0.000182       0.9924    1.0167    0.9911
  174.17    6.78 -138.67     0.000021       0.9991    1.0106    0.9904
  178.01    6.23 -163.06     0.001447       1.0010    1.0088    0.9903
  179.97   87.62 -171.23     0.000159       1.0019    1.0116    0.9866
  179.96   87.07 -172.40     0.000795       1.0020    1.0116    0.9866
  179.95   86.61 -173.82     0.000143       1.0020    1.0116    0.9866
  179.93   88.92 -151.35     0.000408       1.0007    1.0127    0.9867
  179.79   86.80 -152.04     0.000067       1.0008    1.0127    0.9867
  179.67   84.77 -153.44     0.000416       1.0009    1.0125    0.9867
  179.58   82.89 -155.55     0.000419       1.0011    1.0123    0.9867
  179.55   81.22 -158.43     0.000260       1.0013    1.0121    0.9868
  179.58   79.81 -162.08     0.000273       1.0015    1.0119    0.9868
  179.78   88.23 -138.09     0.000466       0.9991    1.0142    0.9869
  179.37   84.75 -138.91     0.000546       0.9992    1.0141    0.9869
  179.02   81.38 -140.58     0.000651       0.9994    1.0138    0.9869
  178.80   78.23 -143.19     0.000354       0.9998    1.0134    0.9870
  178.80   72.95 -151.77     0.000392       1.0007    1.0124    0.9871
  179.03   71.03 -158.10     0.000555       1.0012    1.0118    0.9871
  179.55   87.61   52.14     0.000360       0.9973    1.0158    0.9871
  178.70   82.86   51.30     0.000493       0.9975    1.0156    0.9871
  178.01   78.18   49.54     0.000456       0.9978    1.0152    0.9872
  178.07   63.12 -150.36     0.000629       1.0005    1.0120    0.9876
  178.75   61.15 -160.37     0.000219       1.0013    1.0112    0.9876
  177.75   81.31   59.85     0.000192       0.9959    1.0169    0.9875
  176.78   54.79   36.77     0.000068       0.9997    1.0123    0.9882
  177.94   52.12   25.14     0.000626       1.0008    1.0111    0.9882
  178.80   86.88   68.11     0.000161       0.9945    1.0182    0.9876
  176.51   80.42   67.43     0.000007       0.9946    1.0179    0.9878
  176.94   42.38 -149.57     0.000486       1.0003    1.0109    0.9889
  169.93   51.67   66.57     0.000111       0.9948    1.0161    0.9893
  175.86   31.69 -144.77     0.000295       0.9998    1.0108    0.9895
  177.83   87.84   81.12     0.000338       0.9928    1.0194    0.9881
  173.52   82.88   80.87     0.000381       0.9928    1.0191    0.9884
  169.43   75.53   80.25     0.000463       0.9927    1.0186    0.9889
  165.81   44.40 -105.49     0.000146       0.9935    1.0165    0.9902
  174.87   19.81 -140.94     0.000116       0.9994    1.0107    0.9901
  178.29   18.42 -164.27     0.000001       1.0011    1.0090    0.9900
  177.53   89.19   87.08     0.000189       0.9925    1.0196    0.9882
  174.21    6.78 -138.70     0.000144       0.9991    1.0106    0.9904
  178.06    6.23 -163.11     0.000088       1.0010    1.0088    0.9903
  179.98   88.25 -170.32     0.000155       1.0019    1.0116    0.9866
  179.96   87.62 -171.22     0.000744       1.0019    1.0116    0.9866
  179.95   87.07 -172.40     0.000141       1.0020    1.0116    0.9866
  179.99   85.88 -179.07     0.000160       1.0020    1.0115    0.9866
  179.93   88.92 -151.35     0.000070       1.0007    1.0127    0.9867
  179.79   86.80 -152.04     0.000429       1.0008    1.0127    0.9867
  179.66   84.77 -153.43     0.000402       1.0009    1.0125    0.9867
  179.55   81.22 -158.43     0.000291       1.0013    1.0121    0.9868
  179.57   79.81 -162.08     0.000157       1.0015    1.0118    0.9868
  179.93   77.56 -177.15     0.000507       1.0020    1.0114    0.9868
  179.79   88.23 -138.09     0.000587       0.9991    1.0142    0.9869
  179.36   84.75 -138.90     0.000569       0.9992    1.0141    0.9869
  179.02   81.39 -140.58     0.000072       0.9994    1.0138    0.9869
  178.72   75.38 -146.86     0.000199       1.0002    1.0129    0.9870
  178.80   72.95 -151.77     0.000574       1.0007    1.0124    0.9871
  179.03   71.03 -158.11     0.000109       1.0012    1.0118    0.9871
  179.79   69.03 -175.15     0.001149       1.0019    1.0111    0.9872
  179.55   87.61   52.15     0.000318       0.9973    1.0158    0.9871
  178.70   82.86   51.30     0.000456       0.9975    1.0156    0.9871
  177.61   65.97   37.16     0.000062       0.9997    1.0130    0.9875
  178.07   63.12 -150.36     0.000321       1.0005    1.0120    0.9876
  179.58   60.15 -173.04     0.002138       1.0017    1.0107    0.9877
  177.75   81.31   59.85     0.000003       0.9959    1.0169    0.9875
  176.56   75.38   58.14     0.000018       0.9962    1.0164    0.9876
  176.78   54.79   36.77     0.000138       0.9997    1.0123    0.9882
  177.94   52.11   25.13     0.000443       1.0008    1.0111    0.9882
  179.30   50.77    9.20     0.003654       1.0016    1.0103    0.9883
  178.80   86.88   68.11     0.000146       0.9945    1.0182    0.9876
  173.80   50.96   52.45     0.000085       0.9973    1.0141    0.9888
  175.16   45.75 -136.64     0.000034       0.9988    1.0125    0.9889
  176.95   42.38 -149.58     0.000972       1.0003    1.0109    0.9889
  178.97   40.76 -168.46     0.005571       1.0014    1.0098    0.9889
  172.17   72.88   73.22     0.000174       0.9936    1.0181    0.9885
  171.12   42.04 -120.52     0.000208       0.9961    1.0145    0.9895
  173.28   35.49 -130.63     0.000323       0.9979    1.0127    0.9896
  175.88   31.69 -144.79     0.001533       0.9998    1.0108    0.9895
  178.62   29.98 -166.19     0.008002       1.0013    1.0093    0.9895
  177.83   87.85   81.12     0.000394       0.9928    1.0194    0.9881
  173.52   82.90   80.87     0.000054       0.9928    1.0191    0.9884
  166.31   62.78   78.74     0.000011       0.9928    1.0177    0.9897
  168.09   30.35 -113.91     0.000060       0.9950    1.0148    0.9903
  171.42   23.20 -125.57     0.000508       0.9971    1.0128    0.9902
  174.90   19.81 -140.97     0.001875       0.9994    1.0107    0.9901
  178.32   18.42 -164.30     0.010560       1.0011    1.0090    0.9900
  177.53   89.21   87.08     0.000147       0.9925    1.0196    0.9882
  162.01   73.18   86.55     0.000106       0.9919    1.0180    0.9903
  165.56   12.15 -108.96     0.000287       0.9943    1.0150    0.9909
  170.15    8.23 -122.42     0.000658       0.9966    1.0129    0.9906
  174.28    6.77 -138.78     0.002033       0.9991    1.0106    0.9904
  178.14    6.22 -163.20     0.012711       1.0010    1.0088    0.9903
  179.99   88.93 -169.70     0.000152       1.0019    1.0117    0.9866
  179.97   88.25 -170.32     0.000701       1.0019    1.0116    0.9866
  179.95   87.63 -171.22     0.000140       1.0019    1.0116    0.9866
  179.98   86.00 -177.20     0.000162       1.0020    1.0115    0.9866
 -180.00   85.88 -179.07     0.000959       1.0020    1.0115    0.9866
  179.93   88.92 -151.35     0.000420       1.0007    1.0127    0.9867
  179.78   86.80 -152.03     0.000384       1.0008    1.0127    0.9867
  179.57   82.90 -155.55     0.000303       1.0011    1.0123    0.9867
  179.54   81.22 -158.43     0.000326       1.0013    1.0121    0.9868
  179.78   77.94 -171.59     0.000549       1.0019    1.0115    0.9868
  179.93   77.56 -177.15     0.002815       1.0020    1.0114    0.9868
  179.79   88.23 -138.09     0.000518       0.9991    1.0142    0.9869
  178.72   75.39 -146.86     0.000329       1.0002    1.0129    0.9870
  178.80   72.95 -151.78     0.000157       1.0007    1.0124    0.9871
  179.03   71.03 -158.11     0.000175       1.0012    1.0118    0.9871
  179.38   69.70 -165.98     0.001264       1.0016    1.0114    0.9871
  179.80   69.03 -175.16     0.004569       1.0019    1.0111    0.9872
  179.55   87.61   52.15     0.000401       0.9973    1.0158    0.9871
  177.43   69.56   42.72     0.000104       0.9989    1.0138    0.9874
  177.61   65.96   37.15     0.000231       0.9997    1.0130    0.9875
  178.08   63.11 -150.37     0.000898       1.0005    1.0120    0.9876
  178.77   61.15 -160.39     0.002068       1.0013    1.0112    0.9876
  179.59   60.15 -173.05     0.006236       1.0017    1.0107    0.9877
  175.60   63.72   51.09     0.000100       0.9975    1.0147    0.9880
  175.96   58.72   45.09     0.000539       0.9985    1.0136    0.9881
  176.79   54.78   36.75     0.001585       0.9997    1.0123    0.9882
  177.95   52.11   25.12     0.002735       1.0008    1.0111    0.9882
  179.31   50.77    9.19     0.008053       1.0016    1.0103    0.9882
  173.42   65.63   63.21     0.000066       0.9953    1.0166    0.9883
  173.15   57.83   58.88     0.000018       0.9961    1.0155    0.9886
  173.80   50.95   52.44     0.001002       0.9973    1.0141    0.9888
  175.17   45.74 -136.66     0.001955       0.9988    1.0125    0.9889
  176.97   42.37 -149.60     0.002990       1.0003    1.0109    0.9889
  178.99   40.75 -168.48     0.009874       1.0014    1.0098    0.9889
  175.02   80.74   74.37     0.000307       0.9935    1.0187    0.9881
  172.17   72.89   73.22     0.000114       0.9936    1.0181    0.9885
  170.28   62.87   70.91     0.000314       0.9940    1.0173    0.9890
  169.93   51.67   66.56     0.000013       0.9948    1.0161    0.9893
  171.13   42.03 -120.53     0.000771       0.9961    1.0145    0.9895
  173.30   35.48 -130.65     0.001812       0.9979    1.0127    0.9896
  175.90   31.68 -144.81     0.002644       0.9998    1.0108    0.9895
  178.64   29.98 -166.21     0.011943       1.0012    1.0093    0.9895
  177.82   87.87   81.12     0.000150       0.9928    1.0194    0.9881
  166.31   62.79   78.74     0.000373       0.9928    1.0177    0.9897
  165.81   44.39 -105.50     0.000114       0.9935    1.0165    0.9902
  168.11   30.33 -113.93     0.000634       0.9950    1.0148    0.9903
  171.45   23.19 -125.60     0.001322       0.9971    1.0128    0.9902
  174.93   19.80 -141.01     0.002264       0.9994    1.0107    0.9901
  178.35   18.42 -164.34     0.013377       1.0011    1.0090    0.9900
  177.52   89.23   87.08     0.000055       0.9925    1.0196    0.9882
  172.49   87.30   87.01     0.000747       0.9924    1.0194    0.9885
  167.25   83.87   86.87     0.000957       0.9922    1.0188    0.9893
  162.01   73.23   86.55     0.000289       0.9919    1.0180    0.9903
  160.87   29.18  -97.34     0.000316       0.9924    1.0167    0.9911
  165.61   12.12 -109.02     0.000661       0.9943    1.0150    0.9909
  170.23    8.22 -122.51     0.000822       0.9966    1.0129    0.9906
  174.37    6.77 -138.87     0.002160       0.9991    1.0106    0.9904
  178.23    6.22 -163.29     0.013719       1.0010    1.0088    0.9903
 -180.00   89.63 -169.39     0.000148       1.0019    1.0117    0.9866
  179.98   88.93 -169.70     0.000670       1.0019    1.0117    0.9866
  179.96   88.25 -170.31     0.000141       1.0019    1.0116    0.9866
  179.97   86.25 -175.43     0.000164       1.0020    1.0115    0.9866
  179.99   86.00 -177.20     0.000938       1.0020    1.0115    0.9866
 -179.99   85.88 -179.07     0.000156       1.0020    1.0115    0.9866
  179.93   88.92 -151.34     0.000361       1.0007    1.0127    0.9867
  179.65   84.78 -153.42     0.000311       1.0009    1.0125    0.9867
  179.57   82.90 -155.55     0.000391       1.0011    1.0123    0.9867
  179.54   81.22 -158.43     0.000009       1.0013    1.0121    0.9868
  179.66   78.70 -166.51     0.000529       1.0017    1.0116    0.9868
  179.79   77.94 -171.59     0.002301       1.0019    1.0115    0.9868
  179.94   77.55 -177.15     0.000411       1.0020    1.0114    0.9868
  178.79   78.23 -143.19     0.000221       0.9998    1.0134    0.9870
  178.72   75.38 -146.87     0.000137       1.0002    1.0129    0.9870
  178.81   72.95 -151.78     0.000661       1.0007    1.0124    0.9871
  179.04   71.03 -158.12     0.001048       1.0012    1.0118    0.9871
  179.39   69.70 -165.99     0.002586       1.0016    1.0114    0.9871
  179.80   69.03 -175.16     0.000679       1.0019    1.0111    0.9872
  177.56   73.70   46.75     0.000331       0.9983    1.0146    0.9873
  177.43   69.55   42.71     0.000631       0.9989    1.0138    0.9874
  177.62   65.96   37.14     0.001335       0.9997    1.0130    0.9875
  178.09   63.11 -150.38     0.001300       1.0005    1.0120    0.9876
  178.78   61.14 -160.40     0.001880       1.0013    1.0112    0.9876
  179.59   60.15 -173.05     0.000899       1.0017    1.0107    0.9876
  179.22   87.13   60.66     0.000033       0.9958    1.0171    0.9874
  175.61   63.72   51.08     0.000943       0.9975    1.0147    0.9880
  175.97   58.71   45.08     0.001337       0.9985    1.0136    0.9881
  176.80   54.77   36.74     0.001027       0.9997    1.0123    0.9882
  177.97   52.10   25.10     0.000950       1.0008    1.0111    0.9882
  179.32   50.77    9.19     0.000961       1.0016    1.0103    0.9882
  174.61   73.36   65.90     0.000307       0.9948    1.0174    0.9880
  173.42   65.62   63.20     0.000237       0.9953    1.0166    0.9883
  173.16   57.82   58.87     0.000624       0.9961    1.0155    0.9886
  173.81   50.94   52.43     0.000641       0.9973    1.0141    0.9888
  175.18   45.73 -136.67     0.000593       0.9988    1.0125    0.9889
  176.98   42.37 -149.62     0.000308       1.0003    1.0109    0.9889
  178.99   40.75 -168.48     0.000803       1.0014    1.0098    0.9889
  178.29   87.09   74.86     0.000164       0.9935    1.0189    0.9879
  175.01   80.75   74.37     0.000528       0.9935    1.0187    0.9881
  170.29   62.86   70.91     0.000449       0.9940    1.0173    0.9890
  169.94   51.66   66.55     0.000041       0.9948    1.0161    0.9893
  173.32   35.46 -130.67     0.000015       0.9979    1.0127    0.9896
  178.65   29.98 -166.22     0.000474       1.0013    1.0093    0.9895
  166.31   62.78   78.74     0.000190       0.9928    1.0177    0.9897
  165.82   44.36 -105.51     0.000246       0.9935    1.0165    0.9902
  168.13   30.30 -113.96     0.000069       0.9950    1.0148    0.9903
  174.96   19.79 -141.04     0.000166       0.9994    1.0107    0.9901
  178.37   18.41 -164.35     0.000284       1.0011    1.0090    0.9900
  177.52   89.25   87.08     0.000010       0.9925    1.0196    0.9882
  172.49   87.32   87.01     0.001046       0.9924    1.0194    0.9885
  167.25   83.89   86.87     0.000838       0.9922    1.0189    0.9893
  174.45    6.76 -138.96     0.000197       0.9991    1.0106    0.9904
  178.30    6.22 -163.37     0.000010       1.0010    1.0088    0.9903
  180.00   89.64 -169.39     0.000654       1.0019    1.0117    0.9866
  179.98   88.93 -169.70     0.000143       1.0019    1.0117    0.9866
  179.96   86.61 -173.82     0.000163       1.0020    1.0116    0.9866
  179.97   86.25 -175.44     0.000899       1.0020    1.0115    0.9866
  179.99   86.00 -177.20     0.000151       1.0020    1.0115    0.9866
  179.77   86.81 -152.03     0.000321       1.0008    1.0126    0.9867
  179.65   84.78 -153.42     0.000403       1.0009    1.0125    0.9867
  179.57   82.90 -155.55     0.000049       1.0011    1.0123    0.9867
  179.55   81.22 -158.43     0.000217       1.0013    1.0121    0.9868
  179.58   79.81 -162.10     0.000481       1.0015    1.0119    0.9868
  179.67   78.70 -166.51     0.001522       1.0017    1.0116    0.9868
  179.79   77.94 -171.60     0.000317       1.0019    1.0115    0.9868
  179.01   81.39 -140.57     0.000283       0.9994    1.0138    0.9869
  178.79   78.23 -143.19     0.000259       0.9998    1.0134    0.9870
  178.72   75.38 -146.87     0.000818       1.0002    1.0129    0.9870
  178.82   72.95 -151.79     0.000833       1.0007    1.0124    0.9871
  179.05   71.02 -158.13     0.000565       1.0012    1.0118    0.9871
  179.39   69.70 -165.98     0.000375       1.0016    1.0114    0.9871
  178.00   78.20   49.55     0.000404       0.9978    1.0152    0.9872
  177.56   73.70   46.74     0.000840       0.9983    1.0146    0.9873
  177.44   69.55   42.70     0.001101       0.9989    1.0138    0.9874
  177.63   65.95   37.13     0.000734       0.9997    1.0130    0.9875
  178.78   61.14 -160.39     0.000427       1.0013    1.0112    0.9876
  179.21   87.13   60.66     0.000070       0.9958    1.0171    0.9874
  176.55   75.39   58.13     0.000011       0.9962    1.0164    0.9876
  175.81   69.41   55.30     0.000551       0.9967    1.0157    0.9878
  175.62   63.71   51.07     0.000443       0.9975    1.0147    0.9880
  177.96   52.11   25.12     0.000399       1.0008    1.0111    0.9882
  176.50   80.45   67.42     0.000299       0.9946    1.0179    0.9878
  174.61   73.36   65.90     0.000252       0.9948    1.0174    0.9880
  173.43   65.61   63.20     0.000139       0.9953    1.0166    0.9883
  176.98   42.37 -149.60     0.000463       1.0003    1.0109    0.9889
  178.29   87.10   74.85     0.000458       0.9935    1.0189    0.9879
  175.01   80.75   74.37     0.000103       0.9935    1.0187    0.9881
  175.91   31.68 -144.82     0.000404       0.9998    1.0108    0.9895
  178.64   29.98 -166.20     0.000613       1.0013    1.0093    0.9895
  173.51   82.93   80.86     0.000210       0.9928    1.0191    0.9884
  169.42   75.57   80.25     0.000105       0.9927    1.0186    0.9889
  168.15   30.28 -113.98     0.000034       0.9950    1.0148    0.9903
  174.95   19.79 -141.02     0.000358       0.9994    1.0107    0.9901
  178.34   18.42 -164.32     0.001310       1.0011    1.0090    0.9900
  177.52   89.24   87.08     0.000080       0.9925    1.0196    0.9882
  172.49   87.32   87.01     0.000536       0.9924    1.0194    0.9885
  167.25   83.89   86.86     0.000109       0.9922    1.0189    0.9893
  174.43    6.76 -138.93     0.000039       0.9991    1.0106    0.9904
  178.24    6.22 -163.29     0.001490       1.0010    1.0088    0.9903
