MORPHOLOGY AT STRAIN =    0.0025  FOR PHASE  1
   0.999   1.003   0.998  <-- AXES OF PHASE ELLIPSOID
  179.88   86.75   90.16  <-- EULER ANGLES OF PHASE ELLIPSOID (deg)
   1.001   1.006   0.993  <-- AVERAGE OF GRAIN AXES FOR PHASE
   0.002   0.002   0.001  <-- STANDARD DEV OF AVG GRAIN AXES FOR PHASE
B      1148
  179.63   89.41  178.57     0.000000       1.0025    1.0061    0.9914
  135.73    1.41 -134.09     0.000000       1.0019    1.0043    0.9938
  179.70   87.25   90.53     0.000000       0.9961    1.0110    0.9930
    3.14   48.64  135.50     0.000000       1.0004    1.0071    0.9926
  179.80   89.58 -166.17     0.000145       1.0025    1.0063    0.9913
 -178.88   92.31 -170.80     0.000161       1.0024    1.0062    0.9915
 -179.37   92.85 -173.30     0.000850       1.0024    1.0062    0.9915
 -179.89   93.22 -176.04     0.000146       1.0024    1.0061    0.9915
  179.82   90.29 -144.48     0.000338       1.0014    1.0072    0.9915
 -179.69   92.30 -144.92     0.000403       1.0015    1.0071    0.9914
 -179.08   94.22 -146.36     0.000062       1.0016    1.0070    0.9914
 -178.51   96.04 -148.94     0.000355       1.0017    1.0069    0.9914
 -178.56   97.83 -152.69     0.000441       1.0018    1.0067    0.9916
 -179.06   99.41 -157.53     0.000782       1.0020    1.0065    0.9916
 -179.62  100.60 -163.57     0.000271       1.0022    1.0063    0.9916
 -179.43   94.28   47.74     0.000388       1.0002    1.0082    0.9916
 -178.64   97.41   46.24     0.000432       1.0004    1.0081    0.9916
 -177.94  100.41   43.63     0.000764       1.0006    1.0078    0.9916
 -177.88  103.40 -140.30     0.000633       1.0009    1.0074    0.9917
 -179.09  108.22 -152.98     0.000402       1.0018    1.0065    0.9918
 -178.97   96.15   57.00     0.000389       0.9990    1.0092    0.9919
 -177.92  100.50   55.47     0.000702       0.9992    1.0090    0.9919
 -177.03  104.74   52.87     0.000649       0.9995    1.0087    0.9919
 -178.29  116.19   35.70     0.000440       1.0012    1.0068    0.9921
 -179.10  118.18   24.38     0.000541       1.0019    1.0062    0.9920
 -178.31   97.77   64.68     0.000063       0.9978    1.0100    0.9922
 -176.89  103.32   63.18     0.000250       0.9981    1.0098    0.9922
 -175.74  108.96   60.61     0.000058       0.9984    1.0094    0.9923
 -178.31  127.40   31.13     0.000854       1.0015    1.0062    0.9923
 -179.25   92.12   72.15     0.000065       0.9969    1.0107    0.9925
 -177.22   98.38   71.54     0.000089       0.9970    1.0106    0.9925
    2.94   42.76  142.94     0.000806       1.0010    1.0062    0.9928
    1.36   41.21  -14.23     0.000123       1.0020    1.0052    0.9928
 -178.74   91.31   78.19     0.000250       0.9964    1.0109    0.9928
    4.41   31.90  137.68     0.000444       1.0005    1.0062    0.9933
    2.16   30.17  161.83     0.000677       1.0018    1.0050    0.9933
 -178.39   89.85   83.50     0.000006       0.9961    1.0111    0.9929
 -174.74   93.91   83.27     0.000388       0.9960    1.0111    0.9930
 -170.84   99.63   82.71     0.000412       0.9959    1.0109    0.9932
    6.16   19.74  133.16     0.000165       1.0001    1.0062    0.9937
    3.54   18.29  -22.23     0.001189       1.0016    1.0048    0.9936
 -178.32   88.05   88.28     0.000200       0.9960    1.0111    0.9930
 -159.85  126.36   86.92     0.000182       0.9952    1.0101    0.9948
   10.23    6.33  -52.42     0.000021       0.9999    1.0062    0.9940
    9.29    5.78  -29.73     0.001447       1.0015    1.0047    0.9938
 -178.86   91.75 -169.11     0.000159       1.0024    1.0062    0.9915
 -179.34   92.38 -171.27     0.000795       1.0023    1.0062    0.9915
 -179.86   92.86 -173.70     0.000143       1.0024    1.0061    0.9915
 -179.89   90.25 -144.17     0.000408       1.0015    1.0072    0.9914
 -179.26   92.24 -144.86     0.000067       1.0015    1.0072    0.9914
 -178.65   94.16 -146.60     0.000416       1.0016    1.0070    0.9914
 -178.50   96.09 -149.40     0.000419       1.0017    1.0069    0.9915
 -178.94   97.95 -153.11     0.000260       1.0018    1.0067    0.9916
 -179.47   99.48 -157.84     0.000273       1.0020    1.0065    0.9916
 -179.91   90.93   48.54     0.000466       1.0001    1.0083    0.9916
 -179.07   94.14   47.83     0.000546       1.0002    1.0083    0.9916
 -178.28   97.27   46.14     0.000651       1.0004    1.0081    0.9916
 -177.80  100.38   43.32     0.000354       1.0006    1.0078    0.9917
 -178.75  106.23 -145.90     0.000392       1.0013    1.0069    0.9918
 -179.27  108.20 -153.05     0.000555       1.0018    1.0065    0.9917
 -179.87   91.64   57.82     0.000360       0.9989    1.0093    0.9919
 -178.72   95.99   57.11     0.000493       0.9990    1.0093    0.9918
 -177.63  100.31   55.46     0.000456       0.9992    1.0090    0.9919
 -178.36  116.16   35.68     0.000629       1.0012    1.0068    0.9920
 -178.87  118.05   24.52     0.000219       1.0019    1.0062    0.9919
 -178.17   97.68   64.80     0.000192       0.9979    1.0100    0.9922
 -177.11  124.61   43.00     0.000068       1.0006    1.0071    0.9924
 -177.96  127.19   31.19     0.000626       1.0015    1.0062    0.9924
 -179.51   92.87   72.18     0.000161       0.9969    1.0107    0.9925
 -177.37   98.85   71.55     0.000007       0.9970    1.0106    0.9925
    3.13   42.94  142.97     0.000486       1.0010    1.0062    0.9929
 -169.79  125.22   70.92     0.000111       0.9969    1.0097    0.9935
    4.31   32.00  137.95     0.000295       1.0005    1.0062    0.9934
 -178.49   90.61   83.51     0.000338       0.9961    1.0111    0.9930
 -174.80   94.37   83.26     0.000381       0.9960    1.0111    0.9930
 -170.90   99.88   82.67     0.000463       0.9959    1.0109    0.9933
 -165.74  129.84   78.36     0.000146       0.9960    1.0100    0.9941
    5.31   19.69  134.14     0.000116       1.0001    1.0062    0.9938
    2.78   18.35  -21.40     0.000001       1.0016    1.0048    0.9937
 -178.34   88.61   88.30     0.000189       0.9960    1.0111    0.9931
    5.28    6.05  -47.33     0.000144       0.9998    1.0062    0.9940
    5.03    5.75  -25.34     0.000088       1.0015    1.0047    0.9939
 -178.84   91.12 -167.83     0.000155       1.0024    1.0062    0.9915
 -179.31   91.83 -169.60     0.000744       1.0023    1.0062    0.9915
 -179.83   92.40 -171.66     0.000141       1.0023    1.0062    0.9915
 -179.70   93.26  178.53     0.000160       1.0026    1.0061    0.9913
 -179.46   90.18 -144.10     0.000070       1.0015    1.0072    0.9914
 -178.82   92.16 -145.09     0.000429       1.0015    1.0071    0.9914
 -178.49   94.17 -147.06     0.000402       1.0015    1.0070    0.9915
 -179.37   98.04 -153.39     0.000291       1.0018    1.0066    0.9916
 -179.76   99.47 -157.94     0.000157       1.0020    1.0064    0.9916
 -179.44  101.45 -178.66     0.000507       1.0026    1.0061    0.9914
 -179.55   90.78   48.64     0.000587       1.0002    1.0083    0.9916
 -178.69   93.97   47.74     0.000569       1.0002    1.0082    0.9916
 -178.02   97.17   45.86     0.000072       1.0003    1.0080    0.9917
 -178.55  103.70 -140.83     0.000199       1.0009    1.0074    0.9918
 -178.98  106.24 -145.96     0.000574       1.0014    1.0069    0.9917
 -179.23  108.11 -152.94     0.000109       1.0019    1.0065    0.9917
 -179.08  109.93 -175.73     0.001149       1.0025    1.0060    0.9916
 -179.61   91.46   57.94     0.000318       0.9989    1.0093    0.9918
 -178.40   95.76   57.11     0.000456       0.9990    1.0092    0.9918
 -177.82  113.19   43.17     0.000062       1.0005    1.0075    0.9920
 -178.23  116.03   35.80     0.000321       1.0013    1.0068    0.9920
 -178.93  118.83 -172.53     0.002138       1.0023    1.0058    0.9920
 -177.93   97.42   64.85     0.000003       0.9979    1.0100    0.9921
 -176.50  102.93   63.17     0.000018       0.9981    1.0098    0.9922
 -176.92  124.41   43.04     0.000138       1.0006    1.0071    0.9924
 -177.75  127.02   31.23     0.000443       1.0015    1.0062    0.9924
 -178.77  128.33 -169.13     0.003654       1.0021    1.0055    0.9924
 -179.54   93.07   72.28     0.000146       0.9970    1.0107    0.9925
 -174.09  128.09   57.53     0.000085       0.9987    1.0084    0.9929
    4.62   46.45  130.79     0.000034       0.9997    1.0074    0.9929
    3.09   43.04  143.08     0.000972       1.0009    1.0062    0.9929
    1.41   41.43  -14.39     0.005571       1.0019    1.0052    0.9929
 -173.19  104.94   76.64     0.000174       0.9964    1.0108    0.9930
    8.43   43.02  116.11     0.000208       0.9977    1.0088    0.9936
    6.16   35.82  125.47     0.000323       0.9990    1.0076    0.9935
    3.81   31.96  138.43     0.001533       1.0004    1.0062    0.9934
    1.50   30.32  162.30     0.008002       1.0017    1.0050    0.9934
 -178.64   91.89   83.52     0.000394       0.9961    1.0111    0.9930
 -174.92   95.36   83.26     0.000054       0.9960    1.0111    0.9931
 -167.54  111.51   81.40     0.000011       0.9957    1.0106    0.9938
   10.54   30.25  110.67     0.000060       0.9969    1.0090    0.9942
    6.76   22.55  121.94     0.000508       0.9984    1.0077    0.9940
    3.76   19.46  135.62     0.001875       1.0000    1.0062    0.9938
    1.19   18.33  -20.07     0.010560       1.0015    1.0048    0.9937
 -178.38   90.06   88.32     0.000147       0.9959    1.0111    0.9931
 -164.58   94.74   87.71     0.000106       0.9953    1.0107    0.9941
    3.37    7.39  115.51     0.000287       0.9964    1.0091    0.9946
   -2.82    5.82  129.87     0.000658       0.9980    1.0078    0.9943
   -2.41    5.66  -39.73     0.002033       0.9998    1.0062    0.9940
   -1.99    5.68  -18.51     0.012711       1.0014    1.0047    0.9939
 -178.83   90.44 -166.95     0.000152       1.0023    1.0063    0.9915
 -179.30   91.21 -168.32     0.000701       1.0023    1.0062    0.9915
 -179.81   91.85 -169.98     0.000140       1.0023    1.0062    0.9915
 -179.70   93.13 -178.65     0.000162       1.0026    1.0061    0.9913
 -179.17   93.24  178.97     0.000959       1.0026    1.0061    0.9913
 -179.01   90.09 -144.32     0.000420       1.0014    1.0072    0.9914
 -178.54   92.12 -145.56     0.000384       1.0014    1.0071    0.9915
 -179.32   96.35 -150.07     0.000303       1.0016    1.0068    0.9916
 -179.69   98.06 -153.47     0.000326       1.0018    1.0066    0.9916
 -179.36  101.03 -170.36     0.000549       1.0025    1.0061    0.9914
 -178.92  101.40 -178.24     0.002815       1.0026    1.0061    0.9914
 -179.15   90.59   48.55     0.000518       1.0002    1.0083    0.9916
 -178.82  103.76 -140.90     0.000329       1.0010    1.0074    0.9918
 -179.02  106.17 -145.86     0.000157       1.0014    1.0070    0.9917
 -178.99  107.96 -152.71     0.000175       1.0019    1.0065    0.9916
 -178.80  109.18 -162.40     0.001264       1.0023    1.0062    0.9916
 -178.89  109.86 -175.29     0.004569       1.0024    1.0060    0.9917
 -179.26   91.18   57.94     0.000401       0.9989    1.0093    0.9918
 -177.55  109.44   48.42     0.000104       0.9999    1.0081    0.9920
 -177.82  113.11   43.24     0.000231       1.0006    1.0075    0.9920
 -177.96  115.85   36.00     0.000898       1.0013    1.0068    0.9919
 -178.28  117.74   24.84     0.002068       1.0019    1.0062    0.9920
 -178.90  118.77 -172.15     0.006236       1.0023    1.0058    0.9920
 -175.84  115.14   56.24     0.000100       0.9989    1.0088    0.9924
 -176.21  120.33   50.79     0.000539       0.9997    1.0080    0.9924
 -176.82  124.25   43.06     0.001585       1.0005    1.0071    0.9924
 -177.73  126.92   31.27     0.002735       1.0014    1.0062    0.9924
 -178.91  128.29 -168.85     0.008053       1.0021    1.0055    0.9925
 -173.89  112.73   67.51     0.000066       0.9974    1.0100    0.9927
 -173.52  120.73   63.36     0.000018       0.9978    1.0093    0.9929
 -174.28  128.13   57.39     0.001002       0.9987    1.0085    0.9930
    4.43   46.45  130.92     0.001955       0.9997    1.0074    0.9929
    2.83   43.04  143.21     0.002990       1.0009    1.0062    0.9929
    1.01   41.43  -14.46     0.009874       1.0019    1.0052    0.9929
 -176.22   98.88   77.74     0.000307       0.9964    1.0109    0.9928
 -173.32  105.40   76.60     0.000114       0.9964    1.0108    0.9929
 -171.16  114.72   74.47     0.000314       0.9965    1.0104    0.9932
 -170.65  126.56   70.41     0.000013       0.9969    1.0097    0.9935
    7.81   42.50  116.56     0.000771       0.9977    1.0088    0.9936
    5.49   35.53  125.96     0.001812       0.9990    1.0076    0.9935
    3.07   31.81  138.94     0.002644       1.0004    1.0062    0.9934
    0.63   30.27  162.64     0.011943       1.0017    1.0050    0.9934
 -178.79   93.22   83.53     0.000150       0.9961    1.0111    0.9929
 -167.85  113.00   81.31     0.000373       0.9957    1.0106    0.9938
 -167.14  133.60   77.52     0.000114       0.9960    1.0100    0.9941
    9.58   29.30  111.33     0.000634       0.9969    1.0090    0.9941
    5.00   21.85  123.45     0.001322       0.9984    1.0077    0.9940
    1.93   19.13  137.16     0.002264       1.0000    1.0062    0.9938
   -0.73   18.23  -18.68     0.013377       1.0015    1.0048    0.9937
 -178.42   91.86   88.34     0.000055       0.9959    1.0111    0.9931
 -174.37   92.13   88.28     0.000747       0.9958    1.0111    0.9932
 -169.84   93.14   88.08     0.000957       0.9955    1.0110    0.9936
 -164.77   97.59   87.74     0.000289       0.9952    1.0107    0.9942
   15.63   24.24   96.49     0.000316       0.9952    1.0101    0.9948
    2.79    7.28  115.84     0.000661       0.9965    1.0091    0.9945
   -6.71    5.51  133.43     0.000822       0.9981    1.0078    0.9942
  -10.84    5.34  -31.60     0.002160       0.9998    1.0062    0.9940
   -9.65    5.63  -11.36     0.013719       1.0015    1.0047    0.9939
 -178.82   89.75 -166.51     0.000148       1.0023    1.0063    0.9915
 -179.28   90.54 -167.45     0.000670       1.0023    1.0062    0.9915
 -179.79   91.24 -168.69     0.000141       1.0023    1.0062    0.9915
 -179.70   92.87 -175.96     0.000164       1.0026    1.0061    0.9913
 -179.18   93.09 -178.22     0.000938       1.0026    1.0061    0.9913
 -178.73   93.26  179.40     0.000156       1.0025    1.0061    0.9914
 -178.68   90.03 -144.80     0.000361       1.0014    1.0072    0.9915
 -179.32   94.46 -147.72     0.000311       1.0015    1.0070    0.9916
 -179.67   96.39 -150.14     0.000391       1.0017    1.0068    0.9916
 -179.80   98.00 -153.36     0.000009       1.0019    1.0066    0.9915
 -179.31  100.24 -163.11     0.000529       1.0024    1.0063    0.9914
 -178.86  100.95 -169.97     0.002301       1.0025    1.0062    0.9914
 -178.88  101.40 -177.84     0.000411       1.0025    1.0061    0.9915
 -178.81  100.86 -137.28     0.000221       1.0006    1.0077    0.9918
 -178.93  103.72 -140.82     0.000137       1.0010    1.0074    0.9917
 -178.86  106.03 -145.65     0.000661       1.0015    1.0070    0.9916
 -178.61  107.80 -152.43     0.001048       1.0019    1.0066    0.9916
 -178.55  109.09 -162.18     0.002586       1.0022    1.0062    0.9916
 -178.99  109.86 -174.95     0.000679       1.0024    1.0060    0.9917
 -177.58  105.12   52.17     0.000331       0.9994    1.0086    0.9920
 -177.66  109.43   48.45     0.000631       1.0000    1.0081    0.9920
 -177.66  112.94   43.40     0.001335       1.0006    1.0075    0.9919
 -177.73  115.68   36.12     0.001300       1.0013    1.0069    0.9919
 -178.25  117.69   24.97     0.001880       1.0018    1.0062    0.9920
 -179.09  118.78 -171.87     0.000899       1.0022    1.0058    0.9921
 -179.02   91.45   65.62     0.000033       0.9979    1.0101    0.9921
 -175.94  115.14   56.22     0.000943       0.9989    1.0088    0.9924
 -176.16  120.19   50.83     0.001337       0.9996    1.0080    0.9924
 -176.82  124.18   43.10     0.001027       1.0005    1.0071    0.9924
 -177.86  126.93   31.32     0.000950       1.0014    1.0062    0.9925
 -179.22  128.33 -168.63     0.000961       1.0020    1.0055    0.9925
 -175.07  104.80   70.06     0.000307       0.9971    1.0104    0.9926
 -173.95  112.73   67.45     0.000237       0.9974    1.0100    0.9927
 -173.74  120.92   63.28     0.000624       0.9978    1.0093    0.9929
 -174.50  128.24   57.30     0.000641       0.9986    1.0085    0.9930
    4.17   46.35  131.01     0.000593       0.9997    1.0074    0.9929
    2.46   42.93  143.28     0.000308       1.0009    1.0062    0.9929
    0.50   41.35  -14.57     0.000803       1.0019    1.0053    0.9929
 -179.01   92.91   78.29     0.000164       0.9965    1.0110    0.9926
 -176.07   98.41   77.75     0.000528       0.9964    1.0109    0.9927
 -171.31  115.05   74.42     0.000449       0.9965    1.0104    0.9932
 -170.93  126.99   70.32     0.000041       0.9969    1.0097    0.9935
    4.82   35.18  126.36     0.000015       0.9990    1.0076    0.9935
   -0.21   30.15  162.79     0.000474       1.0017    1.0050    0.9933
 -168.07  114.12   81.28     0.000190       0.9958    1.0106    0.9937
   12.54   45.52  102.58     0.000246       0.9960    1.0100    0.9941
    9.38   29.08  111.30     0.000069       0.9970    1.0090    0.9941
    0.49   18.83  138.17     0.000166       1.0001    1.0063    0.9937
   -2.34   18.09  -17.82     0.000284       1.0016    1.0048    0.9936
 -178.43   93.23   88.35     0.000010       0.9960    1.0111    0.9930
 -174.39   93.64   88.32     0.001046       0.9958    1.0111    0.9932
 -169.89   95.08   88.13     0.000838       0.9956    1.0110    0.9935
   -9.10    5.35  -33.85     0.000197       0.9999    1.0063    0.9939
  -13.57    5.58   -8.18     0.000010       1.0015    1.0047    0.9938
 -179.28   89.84 -167.01     0.000654       1.0023    1.0062    0.9915
 -179.79   90.57 -167.82     0.000143       1.0023    1.0062    0.9915
 -179.72   92.51 -173.52     0.000163       1.0026    1.0062    0.9913
 -179.19   92.82 -175.57     0.000899       1.0026    1.0062    0.9913
 -178.73   93.10 -177.83     0.000151       1.0025    1.0061    0.9914
 -179.37   92.44 -146.21     0.000321       1.0014    1.0071    0.9916
 -179.70   94.53 -147.78     0.000403       1.0015    1.0070    0.9916
 -179.82   96.35 -150.02     0.000049       1.0017    1.0068    0.9915
 -179.68   97.88 -153.09     0.000217       1.0020    1.0067    0.9914
 -179.31   99.13 -157.27     0.000481       1.0022    1.0065    0.9914
 -178.84  100.14 -162.81     0.001522       1.0024    1.0063    0.9914
 -178.74  100.94 -169.70     0.000317       1.0024    1.0062    0.9915
 -178.95   97.67   45.23     0.000283       1.0003    1.0080    0.9918
 -179.00  100.87 -137.21     0.000259       1.0006    1.0077    0.9917
 -178.85  103.60 -140.62     0.000818       1.0010    1.0074    0.9917
 -178.54  105.85 -145.39     0.000833       1.0015    1.0070    0.9916
 -178.27  107.67 -152.26     0.000565       1.0019    1.0066    0.9916
 -178.63  109.10 -161.97     0.000375       1.0021    1.0062    0.9917
 -177.88  100.48   54.75     0.000404       0.9991    1.0089    0.9920
 -177.80  105.22   52.17     0.000840       0.9995    1.0086    0.9920
 -177.63  109.32   48.58     0.001101       1.0000    1.0081    0.9920
 -177.40  112.74   43.58     0.000734       1.0006    1.0075    0.9919
 -178.39  117.73   25.09     0.000427       1.0018    1.0062    0.9921
 -178.78   91.08   65.49     0.000070       0.9978    1.0101    0.9921
 -176.58  102.87   62.77     0.000011       0.9980    1.0098    0.9923
 -176.17  109.25   60.04     0.000551       0.9983    1.0094    0.9924
 -175.96  115.07   56.28     0.000443       0.9989    1.0088    0.9924
 -178.09  127.03   31.41     0.000399       1.0014    1.0062    0.9925
 -176.74   97.58   71.54     0.000299       0.9970    1.0106    0.9925
 -175.07  104.69   70.00     0.000252       0.9971    1.0104    0.9926
 -174.03  112.74   67.42     0.000139       0.9974    1.0100    0.9927
    2.11   42.77  143.25     0.000463       1.0009    1.0062    0.9929
 -178.76   92.00   78.28     0.000458       0.9965    1.0109    0.9926
 -175.89   97.70   77.73     0.000103       0.9965    1.0109    0.9927
    1.84   31.36  139.37     0.000404       1.0005    1.0063    0.9933
   -0.71   29.99  162.70     0.000613       1.0018    1.0050    0.9932
 -175.04   96.79   83.29     0.000210       0.9961    1.0111    0.9929
 -171.33  103.03   82.66     0.000105       0.9959    1.0110    0.9932
    9.86   29.46  110.71     0.000034       0.9970    1.0091    0.9940
    1.79   18.96  136.51     0.000358       1.0001    1.0063    0.9936
   -1.85   18.00  -18.88     0.001310       1.0017    1.0048    0.9935
 -178.39   92.77   88.34     0.000080       0.9961    1.0111    0.9929
 -174.36   94.38   88.34     0.000536       0.9959    1.0111    0.9931
 -169.89   96.32   88.18     0.000109       0.9956    1.0110    0.9935
   -2.38    5.53  -40.93     0.000039       1.0000    1.0063    0.9938
   -7.44    5.47  -14.99     0.001490       1.0016    1.0047    0.9937
  179.66   89.54  162.65     0.000145       1.0022    1.0063    0.9915
 -178.81   92.58  166.45     0.000161       1.0024    1.0063    0.9914
 -179.20   93.01  168.56     0.000850       1.0025    1.0062    0.9913
 -179.72   93.28  171.22     0.000146       1.0026    1.0062    0.9913
  179.51   90.13  142.65     0.000338       1.0012    1.0073    0.9916
  179.61   92.36  143.38     0.000403       1.0012    1.0072    0.9916
  179.91   94.59  144.77     0.000062       1.0013    1.0071    0.9917
 -179.71   96.68  146.89     0.000355       1.0014    1.0070    0.9916
 -179.41   98.47  149.81     0.000441       1.0017    1.0068    0.9915
 -179.33   99.86  153.72     0.000782       1.0020    1.0066    0.9914
 -179.77  100.77  159.04     0.000271       1.0023    1.0064    0.9914
  179.10   94.17  131.25     0.000388       1.0000    1.0083    0.9918
  179.14   97.77  132.83     0.000432       1.0001    1.0081    0.9919
  179.35  101.21  135.25     0.000764       1.0004    1.0079    0.9918
  179.63  104.25  138.62     0.000633       1.0007    1.0075    0.9918
  179.91  108.48  149.43     0.000402       1.0018    1.0067    0.9916
  178.40   95.66  122.19     0.000389       0.9988    1.0092    0.9921
  178.07  100.58  123.84     0.000702       0.9990    1.0090    0.9921
  178.06  105.46  126.43     0.000649       0.9993    1.0087    0.9922
  179.08  116.42  141.87     0.000440       1.0011    1.0070    0.9920
  179.41  118.22  151.86     0.000541       1.0018    1.0063    0.9919
  177.53   96.63  114.65     0.000063       0.9978    1.0098    0.9924
  176.69  102.77  116.27     0.000250       0.9979    1.0097    0.9925
  176.36  109.26  118.91     0.000058       0.9982    1.0093    0.9925
  178.81  127.36  146.18     0.000854       1.0013    1.0064    0.9923
  178.42   90.83  107.60     0.000065       0.9971    1.0104    0.9926
  176.52   96.73  108.11     0.000089       0.9971    1.0103    0.9927
   -1.83   42.70   38.72     0.000806       1.0009    1.0064    0.9928
   -0.35   41.18   18.46     0.000123       1.0019    1.0053    0.9928
  178.11   90.20  102.16     0.000250       0.9966    1.0107    0.9928
   -2.25   31.64   42.60     0.000444       1.0004    1.0063    0.9933
   -0.10   30.09   20.96     0.000677       1.0018    1.0051    0.9932
  177.89   89.13   97.28     0.000006       0.9962    1.0109    0.9930
  174.52   93.02   97.45     0.000388       0.9961    1.0108    0.9932
  171.11   99.06   97.93     0.000412       0.9959    1.0106    0.9935
   -1.69   19.25   44.56     0.000165       1.0000    1.0063    0.9937
    0.97   18.14   21.98     0.001189       1.0016    1.0049    0.9936
  177.85   87.75   92.73     0.000200       0.9961    1.0110    0.9931
  -14.17   26.17   82.60     0.000182       0.9953    1.0099    0.9949
    6.18    5.73   37.99     0.000021       0.9999    1.0063    0.9939
    8.08    5.60   15.85     0.001447       1.0015    1.0047    0.9938
 -178.80   92.06  164.87     0.000159       1.0024    1.0063    0.9914
 -179.21   92.57  166.58     0.000795       1.0025    1.0063    0.9913
 -179.73   92.94  168.89     0.000143       1.0026    1.0062    0.9913
  179.77   90.32  142.74     0.000408       1.0011    1.0073    0.9917
 -179.94   92.65  143.43     0.000067       1.0012    1.0072    0.9917
 -179.60   94.89  144.77     0.000416       1.0013    1.0071    0.9916
 -179.36   96.89  146.82     0.000419       1.0015    1.0070    0.9915
 -179.38   98.53  149.69     0.000260       1.0018    1.0068    0.9914
 -179.88   99.70  153.76     0.000273       1.0021    1.0066    0.9914
  179.52   90.86  130.55     0.000466       0.9999    1.0083    0.9918
  179.51   94.58  131.34     0.000546       0.9999    1.0083    0.9919
  179.62   98.21  132.87     0.000651       1.0001    1.0081    0.9918
  179.75  101.54  135.22     0.000354       1.0004    1.0079    0.9918
  179.64  106.61  143.00     0.000392       1.0013    1.0071    0.9916
  179.35  108.24  149.45     0.000555       1.0018    1.0067    0.9916
  179.23   91.24  121.48     0.000360       0.9987    1.0092    0.9921
  178.79   96.20  122.29     0.000493       0.9988    1.0092    0.9921
  178.56  101.19  123.93     0.000456       0.9990    1.0090    0.9921
  178.69  116.22  141.62     0.000629       1.0012    1.0070    0.9919
  178.86  117.97  151.82     0.000219       1.0018    1.0063    0.9919
  177.89   97.31  114.75     0.000192       0.9978    1.0098    0.9924
  177.67  124.64  135.17     0.000068       1.0004    1.0073    0.9923
  178.25  127.14  145.74     0.000626       1.0014    1.0064    0.9923
  178.56   91.23  107.66     0.000161       0.9970    1.0104    0.9927
  176.85   97.60  108.19     0.000007       0.9970    1.0103    0.9928
   -2.43   42.93   39.35     0.000486       1.0009    1.0064    0.9928
  172.09  127.77  109.69     0.000111       0.9969    1.0096    0.9935
   -3.00   31.91   43.48     0.000295       1.0005    1.0064    0.9932
  177.98   89.75   97.29     0.000338       0.9962    1.0109    0.9931
  174.71   94.20   97.46     0.000381       0.9960    1.0108    0.9932
  171.45  101.08   97.96     0.000463       0.9959    1.0107    0.9936
  -11.15   44.65   76.85     0.000146       0.9961    1.0098    0.9942
   -2.95   19.56   46.02     0.000116       1.0001    1.0063    0.9936
   -0.49   18.29   23.73     0.000001       1.0017    1.0049    0.9935
  177.89   88.51   92.71     0.000189       0.9960    1.0110    0.9932
    1.31    6.05   43.14     0.000144       0.9999    1.0063    0.9938
    3.60    5.72   20.79     0.000088       1.0016    1.0048    0.9937
 -178.78   91.47  163.66     0.000155       1.0023    1.0063    0.9914
 -179.21   92.05  164.97     0.000744       1.0025    1.0063    0.9913
 -179.75   92.49  166.90     0.000141       1.0025    1.0062    0.9913
 -179.97   93.25  176.74     0.000160       1.0024    1.0061    0.9915
 -179.76   90.63  142.77     0.000070       1.0011    1.0073    0.9917
 -179.45   92.97  143.40     0.000429       1.0012    1.0072    0.9916
 -179.26   95.11  144.67     0.000402       1.0014    1.0072    0.9915
 -179.94   98.33  149.70     0.000291       1.0019    1.0068    0.9914
  179.62   99.50  153.96     0.000157       1.0021    1.0066    0.9914
  179.86  101.41  173.81     0.000507       1.0024    1.0061    0.9916
  179.97   91.30  130.61     0.000587       0.9999    1.0083    0.9919
 -179.99   95.05  131.35     0.000569       1.0000    1.0083    0.9918
 -180.00   98.56  132.82     0.000072       1.0002    1.0081    0.9918
  179.49  104.22  138.33     0.000199       1.0009    1.0075    0.9916
  179.07  106.30  143.01     0.000574       1.0013    1.0071    0.9916
  178.93  108.00  149.59     0.000109       1.0017    1.0067    0.9917
  179.59  109.86  170.78     0.001149       1.0023    1.0060    0.9918
  179.66   91.84  121.54     0.000318       0.9987    1.0093    0.9921
  179.29   96.86  122.33     0.000456       0.9988    1.0092    0.9921
  178.15  113.29  134.68     0.000062       1.0005    1.0077    0.9919
  178.14  115.87  141.59     0.000321       1.0011    1.0070    0.9919
  179.23  118.77  167.56     0.002138       1.0022    1.0058    0.9920
  178.39   98.23  114.81     0.000003       0.9978    1.0099    0.9924
  177.64  104.37  116.42     0.000018       0.9980    1.0097    0.9924
  177.04  124.24  134.83     0.000138       1.0005    1.0073    0.9923
  177.70  126.86  145.62     0.000443       1.0014    1.0064    0.9923
  178.74  128.28  164.08     0.003654       1.0021    1.0056    0.9924
  178.93   92.27  107.70     0.000146       0.9970    1.0104    0.9927
  174.99  128.37  121.46     0.000085       0.9987    1.0085    0.9928
   -4.36   46.62   51.08     0.000034       0.9998    1.0075    0.9928
   -3.34   43.28   40.03     0.000972       1.0009    1.0064    0.9927
   -1.92   41.49   19.72     0.005571       1.0020    1.0053    0.9927
  174.02  106.34  103.58     0.000174       0.9964    1.0104    0.9932
   -7.22   42.61   64.47     0.000208       0.9979    1.0088    0.9934
   -5.92   36.18   56.23     0.000323       0.9991    1.0077    0.9933
   -4.29   32.34   44.67     0.001533       1.0005    1.0064    0.9932
   -2.43   30.42   23.27     0.008002       1.0018    1.0051    0.9931
  178.21   91.37   97.28     0.000394       0.9961    1.0109    0.9931
  175.01   96.30   97.45     0.000054       0.9960    1.0108    0.9933
  169.34  116.65   99.26     0.000011       0.9959    1.0103    0.9939
   -9.65   30.61   69.97     0.000060       0.9971    1.0090    0.9939
   -7.41   23.53   60.49     0.000508       0.9985    1.0078    0.9937
   -5.09   20.06   48.16     0.001875       1.0001    1.0064    0.9936
   -2.69   18.49   26.01     0.010560       1.0017    1.0049    0.9935
  177.98   90.37   92.69     0.000147       0.9959    1.0110    0.9932
  165.80  106.93   92.96     0.000106       0.9953    1.0105    0.9943
  -11.53   11.95   73.92     0.000287       0.9967    1.0091    0.9943
   -8.43    8.10   63.13     0.000658       0.9982    1.0078    0.9940
   -5.82    6.58   50.36     0.002033       0.9999    1.0063    0.9938
   -3.33    5.90   27.99     0.012711       1.0016    1.0048    0.9937
 -178.75   90.82  162.85     0.000152       1.0023    1.0063    0.9914
 -179.21   91.45  163.75     0.000701       1.0024    1.0063    0.9913
 -179.76   91.95  165.27     0.000140       1.0025    1.0063    0.9913
 -179.99   93.13  174.07     0.000162       1.0024    1.0061    0.9915
 -179.51   93.24  176.35     0.000959       1.0024    1.0061    0.9915
 -179.26   90.96  142.71     0.000420       1.0012    1.0073    0.9916
 -179.10   93.19  143.27     0.000384       1.0013    1.0073    0.9915
 -179.97   96.69  146.66     0.000303       1.0017    1.0070    0.9914
  179.55   98.09  149.88     0.000326       1.0019    1.0068    0.9914
  179.70  101.01  166.11     0.000549       1.0023    1.0062    0.9916
 -179.79  101.39  173.47     0.002815       1.0023    1.0061    0.9916
 -179.53   91.79  130.58     0.000518       0.9999    1.0084    0.9918
  178.91  103.84  138.34     0.000329       1.0009    1.0075    0.9916
  178.66  106.01  143.14     0.000157       1.0013    1.0071    0.9917
  178.76  107.82  149.75     0.000175       1.0017    1.0067    0.9917
  179.19  109.14  158.73     0.001264       1.0020    1.0063    0.9918
  179.85  109.84  170.52     0.004569       1.0023    1.0060    0.9918
 -179.84   92.53  121.53     0.000401       0.9987    1.0093    0.9921
  177.86  109.59  129.71     0.000104       0.9999    1.0082    0.9919
  177.63  112.86  134.67     0.000231       1.0005    1.0076    0.9920
  177.84  115.62  141.67     0.000898       1.0011    1.0070    0.9920
  178.46  117.64  151.93     0.002068       1.0017    1.0063    0.9921
  179.37  118.73  167.37     0.006236       1.0021    1.0058    0.9921
  176.35  115.36  122.41     0.000100       0.9990    1.0088    0.9923
  176.17  119.98  127.53     0.000539       0.9996    1.0081    0.9923
  176.58  123.87  134.79     0.001585       1.0004    1.0073    0.9924
  177.49  126.68  145.67     0.002735       1.0013    1.0063    0.9924
  178.76  128.21  163.94     0.008053       1.0020    1.0056    0.9925
  175.03  114.04  112.06     0.000066       0.9975    1.0098    0.9927
  174.30  121.18  115.69     0.000018       0.9980    1.0093    0.9927
  174.25  127.62  121.02     0.001002       0.9987    1.0085    0.9928
   -5.05   47.15   51.39     0.001955       0.9997    1.0075    0.9928
   -3.75   43.53   40.09     0.002990       1.0009    1.0064    0.9928
   -2.07   41.59   19.83     0.009874       1.0019    1.0053    0.9928
  176.51   99.90  102.58     0.000307       0.9965    1.0106    0.9930
  174.27  107.41  103.54     0.000114       0.9965    1.0104    0.9931
  172.48  116.80  105.57     0.000314       0.9967    1.0102    0.9932
  171.59  127.15  109.13     0.000013       0.9971    1.0096    0.9933
   -8.23   43.67   65.25     0.000771       0.9979    1.0088    0.9933
   -7.09   36.94   57.13     0.001812       0.9991    1.0077    0.9933
   -5.35   32.73   45.41     0.002644       1.0004    1.0064    0.9932
   -3.28   30.56   23.94     0.011943       1.0017    1.0051    0.9932
  178.47   93.34   97.27     0.000150       0.9961    1.0109    0.9931
  169.37  117.34   99.15     0.000373       0.9960    1.0104    0.9937
  168.08  133.92  102.36     0.000114       0.9963    1.0098    0.9939
  -11.29   32.40   71.41     0.000634       0.9972    1.0090    0.9939
   -9.64   24.69   62.51     0.001322       0.9985    1.0078    0.9937
   -7.53   20.67   50.36     0.002264       1.0001    1.0064    0.9936
   -5.07   18.68   28.20     0.013377       1.0016    1.0049    0.9935
  178.06   92.60   92.67     0.000055       0.9960    1.0110    0.9932
  174.30   95.04   92.61     0.000747       0.9958    1.0109    0.9933
  170.21   99.24   92.63     0.000957       0.9956    1.0108    0.9937
  165.91  110.71   92.86     0.000289       0.9954    1.0105    0.9942
  -16.56   34.18   84.99     0.000316       0.9956    1.0099    0.9946
  -15.78   14.91   78.04     0.000661       0.9967    1.0091    0.9943
  -14.39    9.50   68.96     0.000822       0.9982    1.0078    0.9940
  -12.74    7.26   57.13     0.002160       0.9999    1.0063    0.9938
  -10.63    6.15   35.23     0.013719       1.0016    1.0048    0.9937
 -178.73   90.14  162.45     0.000148       1.0023    1.0064    0.9914
 -179.21   90.79  162.93     0.000670       1.0024    1.0063    0.9913
 -179.76   91.35  164.04     0.000141       1.0025    1.0063    0.9913
  179.99   92.89  171.58     0.000164       1.0024    1.0062    0.9915
 -179.53   93.13  173.69     0.000938       1.0024    1.0062    0.9915
 -179.06   93.28  175.89     0.000156       1.0024    1.0061    0.9915
 -178.92   91.18  142.56     0.000361       1.0013    1.0073    0.9915
 -179.95   94.86  144.51     0.000311       1.0015    1.0071    0.9914
  179.53   96.44  146.85     0.000391       1.0017    1.0070    0.9914
  179.25   97.89  150.15     0.000009       1.0018    1.0068    0.9915
  179.57  100.25  159.63     0.000529       1.0021    1.0064    0.9916
 -179.93  101.03  165.84     0.002301       1.0022    1.0062    0.9916
 -179.38  101.45  173.08     0.000411       1.0024    1.0061    0.9916
  178.89  100.98  134.97     0.000221       1.0006    1.0078    0.9916
  178.52  103.52  138.49     0.000137       1.0009    1.0075    0.9917
  178.52  105.82  143.32     0.000661       1.0012    1.0071    0.9917
  178.86  107.75  149.84     0.001048       1.0016    1.0067    0.9918
  179.47  109.15  158.58     0.002586       1.0020    1.0063    0.9918
 -179.80  109.90  170.20     0.000679       1.0022    1.0060    0.9918
  177.86  105.36  126.13     0.000331       0.9995    1.0087    0.9919
  177.38  109.11  129.73     0.000631       0.9999    1.0082    0.9920
  177.37  112.58  134.77     0.001335       1.0004    1.0076    0.9920
  177.83  115.51  141.80     0.001300       1.0010    1.0070    0.9921
  178.66  117.64  151.95     0.001880       1.0016    1.0063    0.9921
  179.69  118.78  167.17     0.000899       1.0021    1.0058    0.9921
 -179.84   93.84  113.97     0.000033       0.9978    1.0099    0.9923
  175.77  114.64  122.32     0.000943       0.9989    1.0088    0.9923
  175.80  119.56  127.53     0.001337       0.9995    1.0081    0.9924
  176.46  123.69  134.89     0.001027       1.0003    1.0073    0.9925
  177.60  126.66  145.80     0.000950       1.0012    1.0064    0.9925
  179.05  128.24  163.88     0.000961       1.0019    1.0056    0.9925
  176.03  106.47  109.52     0.000307       0.9973    1.0102    0.9926
  174.44  112.98  111.84     0.000237       0.9976    1.0098    0.9927
  173.62  120.12  115.48     0.000624       0.9980    1.0093    0.9928
  173.74  126.99  120.89     0.000641       0.9987    1.0085    0.9929
   -5.28   47.41   51.36     0.000593       0.9996    1.0075    0.9929
   -3.71   43.58   39.90     0.000308       1.0008    1.0064    0.9929
   -1.79   41.57   19.71     0.000803       1.0018    1.0053    0.9929
  179.21   94.83  102.19     0.000164       0.9966    1.0107    0.9928
  176.66  100.63  102.52     0.000528       0.9966    1.0106    0.9928
  171.94  115.44  105.33     0.000449       0.9968    1.0102    0.9932
  170.82  125.60  108.77     0.000041       0.9971    1.0096    0.9933
   -7.43   37.28   57.18     0.000015       0.9990    1.0077    0.9934
   -2.98   30.55   23.60     0.000474       1.0016    1.0051    0.9933
  168.91  115.47   98.93     0.000190       0.9961    1.0103    0.9937
  167.20  131.39  101.84     0.000246       0.9963    1.0098    0.9939
  -12.15   33.65   71.98     0.000069       0.9971    1.0090    0.9940
   -7.69   20.74   50.21     0.000166       1.0000    1.0063    0.9937
   -5.18   18.69   28.06     0.000284       1.0015    1.0049    0.9936
  178.11   94.19   92.66     0.000010       0.9961    1.0110    0.9930
  174.30   96.51   92.56     0.001046       0.9960    1.0109    0.9932
  170.13   99.69   92.58     0.000838       0.9957    1.0108    0.9936
  -14.98    7.49   59.03     0.000197       0.9998    1.0063    0.9939
  -14.84    6.29   39.06     0.000010       1.0015    1.0048    0.9938
 -179.21   90.10  162.51     0.000654       1.0024    1.0063    0.9913
 -179.77   90.69  163.22     0.000143       1.0025    1.0063    0.9913
  179.98   92.53  169.36     0.000163       1.0023    1.0062    0.9915
 -179.54   92.90  171.21     0.000899       1.0023    1.0062    0.9915
 -179.07   93.18  173.24     0.000151       1.0024    1.0062    0.9915
 -179.89   92.87  143.12     0.000321       1.0014    1.0072    0.9914
  179.55   94.58  144.70     0.000403       1.0015    1.0071    0.9914
  179.23   96.22  147.12     0.000049       1.0016    1.0069    0.9915
  179.22   97.76  150.36     0.000217       1.0017    1.0068    0.9916
  179.49   99.14  154.44     0.000481       1.0019    1.0066    0.9916
  179.96  100.29  159.40     0.001522       1.0020    1.0064    0.9916
 -179.51  101.11  165.47     0.000317       1.0022    1.0062    0.9916
  179.00   97.83  132.61     0.000283       1.0004    1.0081    0.9916
  178.52  100.63  135.13     0.000259       1.0006    1.0078    0.9917
  178.40  103.33  138.68     0.000818       1.0008    1.0075    0.9918
  178.65  105.78  143.45     0.000833       1.0012    1.0071    0.9918
  179.18  107.81  149.81     0.000565       1.0015    1.0067    0.9918
  179.86  109.25  158.36     0.000375       1.0019    1.0063    0.9918
  178.14  100.83  123.64     0.000404       0.9992    1.0090    0.9919
  177.42  104.84  126.19     0.000840       0.9995    1.0086    0.9920
  177.18  108.82  129.86     0.001101       0.9998    1.0082    0.9920
  177.43  112.50  134.92     0.000734       1.0003    1.0076    0.9921
  179.02  117.75  151.88     0.000427       1.0016    1.0063    0.9921
 -179.79   93.97  113.85     0.000070       0.9980    1.0100    0.9922
  176.94  103.36  116.12     0.000011       0.9982    1.0097    0.9922
  175.89  108.67  118.64     0.000551       0.9984    1.0093    0.9923
  175.49  114.20  122.37     0.000443       0.9989    1.0088    0.9924
  177.97  126.78  145.93     0.000399       1.0011    1.0064    0.9925
  177.46   99.44  108.06     0.000299       0.9973    1.0103    0.9925
  175.40  105.05  109.43     0.000252       0.9974    1.0101    0.9926
  173.89  111.84  111.76     0.000139       0.9975    1.0098    0.9927
   -3.29   43.44   39.56     0.000463       1.0007    1.0064    0.9930
  179.21   94.91  102.12     0.000458       0.9967    1.0107    0.9927
  176.29   99.38  102.44     0.000103       0.9967    1.0106    0.9928
   -4.77   32.60   44.55     0.000404       1.0003    1.0064    0.9934
   -2.16   30.41   22.93     0.000613       1.0016    1.0051    0.9934
  175.10   97.85   97.34     0.000210       0.9963    1.0108    0.9930
  171.57  103.07   97.81     0.000105       0.9961    1.0107    0.9933
  -12.19   33.87   71.85     0.000034       0.9970    1.0090    0.9941
   -6.59   20.43   48.98     0.000358       0.9999    1.0063    0.9938
   -3.70   18.51   26.54     0.001310       1.0014    1.0049    0.9937
  178.04   93.37   92.67     0.000080       0.9962    1.0110    0.9929
  174.16   94.53   92.60     0.000536       0.9960    1.0109    0.9931
  169.95   96.94   92.64     0.000109       0.9958    1.0108    0.9935
  -11.26    6.98   55.09     0.000039       0.9997    1.0063    0.9940
  -10.11    5.98   34.10     0.001490       1.0014    1.0048    0.9939
  179.76   89.22  162.15     0.000145       1.0024    1.0063    0.9913
 -178.81   86.53  166.63     0.000161       1.0023    1.0062    0.9915
 -179.31   85.98  169.10     0.000850       1.0023    1.0062    0.9916
 -179.87   85.61  171.78     0.000146       1.0023    1.0061    0.9916
  179.74   88.48  142.09     0.000338       1.0014    1.0073    0.9914
 -179.58   86.58  142.48     0.000403       1.0014    1.0073    0.9914
 -178.83   84.76  143.85     0.000062       1.0015    1.0071    0.9914
 -178.18   83.01  146.31     0.000355       1.0016    1.0070    0.9915
 -178.33   81.20  149.88     0.000441       1.0017    1.0067    0.9916
 -178.89   79.61  154.45     0.000782       1.0018    1.0065    0.9917
 -179.59   78.40  160.09     0.000271       1.0021    1.0063    0.9917
 -179.22   84.74  130.53     0.000388       1.0002    1.0083    0.9916
 -178.20   81.87  131.99     0.000432       1.0004    1.0081    0.9916
 -177.37   79.05  134.55     0.000764       1.0006    1.0078    0.9917
 -177.48   76.02  138.38     0.000633       1.0008    1.0074    0.9919
 -179.05   71.13  150.46     0.000402       1.0016    1.0065    0.9920
 -178.67   83.13  121.64     0.000389       0.9991    1.0092    0.9918
 -177.29   79.33  123.13     0.000702       0.9993    1.0089    0.9919
 -176.21   75.43  125.69     0.000649       0.9995    1.0085    0.9920
 -178.25   63.67  142.55     0.000440       1.0010    1.0067    0.9923
 -179.53   61.56  153.17     0.000541       1.0017    1.0061    0.9923
 -177.93   81.92  114.36     0.000063       0.9981    1.0098    0.9921
 -176.11   77.30  115.91     0.000250       0.9983    1.0096    0.9922
 -174.66   72.25  118.47     0.000058       0.9985    1.0092    0.9923
 -179.00   52.86  147.35     0.000854       1.0013    1.0061    0.9927
 -179.51   85.95  107.55     0.000065       0.9973    1.0104    0.9924
 -177.03   81.30  108.21     0.000089       0.9973    1.0104    0.9924
 -178.40   43.29  -37.17     0.000806       1.0009    1.0061    0.9930
  179.33   41.77  163.93     0.000123       1.0020    1.0051    0.9930
 -179.14   85.89  102.15     0.000250       0.9967    1.0107    0.9926
 -177.89   32.67  -40.91     0.000444       1.0004    1.0062    0.9934
  179.07   31.07  -18.00     0.000677       1.0018    1.0049    0.9933
 -178.77   86.30   97.29     0.000006       0.9964    1.0109    0.9928
 -175.10   83.19   97.64     0.000388       0.9963    1.0109    0.9929
 -171.21   78.62   98.32     0.000412       0.9962    1.0108    0.9931
 -177.97   20.73  -43.26     0.000165       1.0001    1.0062    0.9938
  178.20   19.47  161.20     0.001189       1.0017    1.0048    0.9936
 -178.47   87.19   92.76     0.000200       0.9962    1.0110    0.9929
 -161.29   50.77   94.98     0.000182       0.9954    1.0100    0.9946
  178.44    7.54  139.01     0.000021       0.9999    1.0062    0.9939
  173.62    7.15  165.02     0.001447       1.0016    1.0047    0.9938
 -178.83   87.09  165.07     0.000159       1.0023    1.0063    0.9915
 -179.33   86.45  167.17     0.000795       1.0023    1.0062    0.9916
 -179.87   85.96  169.52     0.000143       1.0023    1.0062    0.9916
 -179.68   88.65  141.83     0.000408       1.0014    1.0073    0.9914
 -178.90   86.76  142.53     0.000067       1.0014    1.0073    0.9914
 -178.23   84.90  144.24     0.000416       1.0014    1.0071    0.9915
 -178.41   82.87  146.91     0.000419       1.0015    1.0069    0.9916
 -178.92   81.01  150.41     0.000260       1.0016    1.0067    0.9917
 -179.56   79.48  154.80     0.000273       1.0019    1.0065    0.9917
 -179.55   88.12  129.82     0.000466       1.0001    1.0084    0.9915
 -178.46   85.19  130.56     0.000546       1.0002    1.0083    0.9916
 -177.59   82.20  132.30     0.000651       1.0003    1.0081    0.9917
 -177.64   78.85  135.07     0.000354       1.0005    1.0077    0.9919
 -178.91   73.01  143.91     0.000392       1.0012    1.0069    0.9920
 -179.67   71.02  150.54     0.000555       1.0016    1.0065    0.9919
 -179.36   87.69  120.90     0.000360       0.9990    1.0093    0.9918
 -177.86   83.91  121.64     0.000493       0.9991    1.0092    0.9918
 -176.67   79.88  123.35     0.000456       0.9992    1.0089    0.9920
 -178.97   63.45  142.67     0.000629       1.0011    1.0067    0.9923
 -179.89   61.55  152.93     0.000219       1.0018    1.0061    0.9922
 -177.14   83.08  114.35     0.000192       0.9981    1.0098    0.9921
 -178.01   55.42  136.33     0.000068       1.0004    1.0070    0.9927
 -179.40   52.80  147.13     0.000626       1.0014    1.0061    0.9926
 -178.89   87.35  107.45     0.000161       0.9973    1.0104    0.9923
 -176.31   82.85  108.20     0.000007       0.9973    1.0104    0.9924
 -178.83   43.22  -37.32     0.000486       1.0009    1.0062    0.9929
 -170.50   55.51  110.00     0.000111       0.9970    1.0096    0.9935
 -178.33   32.60  -40.99     0.000295       1.0005    1.0062    0.9933
 -178.47   88.05   97.25     0.000338       0.9964    1.0109    0.9928
 -174.73   85.30   97.66     0.000381       0.9963    1.0109    0.9928
 -170.79   81.03   98.40     0.000463       0.9962    1.0108    0.9931
 -166.93   50.57  103.17     0.000146       0.9961    1.0099    0.9941
 -178.30   20.72  -43.36     0.000116       1.0002    1.0062    0.9937
  178.80   19.56  160.07     0.000001       1.0017    1.0048    0.9935
 -178.35   88.79   92.75     0.000189       0.9962    1.0110    0.9929
  178.80    7.64  138.28     0.000144       1.0000    1.0062    0.9938
  175.84    7.25  162.28     0.000088       1.0017    1.0047    0.9937
 -178.86   87.70  163.88     0.000155       1.0023    1.0063    0.9915
 -179.35   86.99  165.60     0.000744       1.0022    1.0063    0.9916
 -179.88   86.41  167.57     0.000141       1.0023    1.0062    0.9916
 -179.87   85.58  176.76     0.000160       1.0026    1.0061    0.9913
 -178.99   88.84  141.90     0.000070       1.0013    1.0073    0.9914
 -178.38   86.88  142.94     0.000429       1.0013    1.0072    0.9915
 -178.54   84.71  144.80     0.000402       1.0013    1.0071    0.9916
 -179.57   80.85  150.71     0.000291       1.0017    1.0067    0.9917
  179.94   79.43  154.85     0.000157       1.0019    1.0065    0.9917
 -179.99   77.54  174.05     0.000507       1.0026    1.0060    0.9914
 -178.78   88.59  129.90     0.000587       1.0001    1.0084    0.9916
 -177.99   85.43  130.90     0.000569       1.0001    1.0083    0.9917
 -177.93   81.91  132.76     0.000072       1.0002    1.0080    0.9918
 -178.88   75.36  139.17     0.000199       1.0008    1.0073    0.9920
 -179.50   72.84  143.95     0.000574       1.0012    1.0069    0.9919
 -179.93   71.03  150.28     0.000109       1.0017    1.0065    0.9918
  179.97   69.32  171.29     0.001149       1.0025    1.0059    0.9917
 -178.55   88.51  120.96     0.000318       0.9990    1.0093    0.9918
 -177.42   84.31  121.91     0.000456       0.9990    1.0091    0.9920
 -178.59   66.18  135.58     0.000062       1.0004    1.0074    0.9923
 -179.28   63.40  142.43     0.000321       1.0011    1.0068    0.9922
 -180.00   60.77  168.32     0.002138       1.0024    1.0056    0.9920
 -176.70   83.71  114.56     0.000003       0.9980    1.0098    0.9923
 -175.83   77.67  116.40     0.000018       0.9981    1.0095    0.9924
 -178.35   55.31  136.14     0.000138       1.0005    1.0070    0.9925
 -179.24   52.88  146.51     0.000443       1.0015    1.0061    0.9924
 -179.91   51.72  165.11     0.003654       1.0023    1.0054    0.9924
 -178.18   88.97  107.49     0.000146       0.9973    1.0104    0.9924
 -175.58   51.66  123.03     0.000085       0.9987    1.0083    0.9930
 -177.15   46.42  -49.02     0.000034       0.9998    1.0073    0.9929
 -178.58   43.32  -37.98     0.000972       1.0010    1.0062    0.9928
 -179.77   41.91  162.31     0.005571       1.0021    1.0052    0.9928
 -172.58   77.68  104.04     0.000174       0.9965    1.0105    0.9930
 -173.48   42.92  -62.62     0.000208       0.9979    1.0087    0.9935
 -175.80   36.28  -53.64     0.000323       0.9991    1.0076    0.9934
 -177.88   32.75  -41.80     0.001533       1.0006    1.0062    0.9932
 -179.62   31.23  -20.11     0.008002       1.0019    1.0050    0.9931
 -178.11   90.17   97.28     0.000394       0.9964    1.0109    0.9928
 -174.38   87.41   97.75     0.000054       0.9963    1.0109    0.9929
 -168.03   69.00   99.90     0.000011       0.9959    1.0105    0.9938
 -171.26   31.37  -67.84     0.000060       0.9971    1.0090    0.9940
 -174.65   24.12  -57.34     0.000508       0.9986    1.0077    0.9938
 -177.35   20.94  -44.62     0.001875       1.0002    1.0062    0.9936
 -179.49   19.68  158.03     0.010560       1.0018    1.0048    0.9934
 -178.22   90.81   92.77     0.000147       0.9962    1.0110    0.9929
 -164.93   81.33   93.71     0.000106       0.9954    1.0106    0.9941
 -171.06   13.12  -70.19     0.000287       0.9966    1.0091    0.9944
 -175.44    9.28  -58.07     0.000658       0.9982    1.0078    0.9940
 -177.91    7.93  134.73     0.002033       1.0000    1.0062    0.9938
 -179.44    7.38  157.18     0.012711       1.0017    1.0047    0.9936
 -178.89   88.37  163.08     0.000152       1.0022    1.0063    0.9915
 -179.37   87.60  164.40     0.000701       1.0022    1.0063    0.9916
 -179.90   86.95  165.98     0.000140       1.0023    1.0062    0.9916
 -179.85   85.71  173.94     0.000162       1.0026    1.0061    0.9913
 -179.33   85.62  176.33     0.000959       1.0026    1.0061    0.9913
 -178.57   88.91  142.32     0.000420       1.0013    1.0073    0.9915
 -178.71   86.67  143.46     0.000384       1.0012    1.0072    0.9916
 -179.62   82.45  147.64     0.000303       1.0015    1.0069    0.9917
  179.95   80.78  150.71     0.000326       1.0017    1.0067    0.9917
 -179.84   77.94  165.92     0.000549       1.0025    1.0061    0.9914
 -179.39   77.59  173.60     0.002815       1.0026    1.0060    0.9914
 -178.46   88.73  130.25     0.000518       1.0000    1.0084    0.9917
 -179.44   75.15  139.17     0.000329       1.0008    1.0073    0.9919
 -179.73   72.84  143.68     0.000157       1.0013    1.0069    0.9918
 -179.78   71.14  149.79     0.000175       1.0018    1.0065    0.9917
 -179.63   70.01  158.50     0.001264       1.0023    1.0061    0.9917
 -179.37   69.39  170.76     0.004569       1.0026    1.0059    0.9916
 -178.29   88.71  121.25     0.000401       0.9988    1.0093    0.9920
 -178.43   69.59  130.50     0.000104       0.9999    1.0080    0.9922
 -178.85   66.10  135.35     0.000231       1.0005    1.0074    0.9921
 -179.11   63.51  141.92     0.000898       1.0012    1.0068    0.9920
 -179.21   61.79  151.72     0.002068       1.0019    1.0061    0.9920
 -179.24   60.85  167.72     0.006236       1.0025    1.0056    0.9920
 -176.98   64.02  123.52     0.000100       0.9989    1.0086    0.9926
 -177.57   59.07  128.74     0.000539       0.9996    1.0079    0.9925
 -178.13   55.45  135.62     0.001585       1.0006    1.0071    0.9924
 -178.59   53.08  145.76     0.002735       1.0015    1.0061    0.9924
 -179.02   51.81  164.36     0.008053       1.0023    1.0054    0.9923
 -174.58   66.87  113.00     0.000066       0.9974    1.0097    0.9930
 -174.98   58.36  117.19     0.000018       0.9979    1.0092    0.9930
 -175.85   51.46  122.92     0.001002       0.9988    1.0084    0.9929
 -176.83   46.60  -49.57     0.001955       0.9999    1.0074    0.9928
 -177.77   43.56  -38.89     0.002990       1.0011    1.0062    0.9928
 -178.67   42.01  161.34     0.009874       1.0021    1.0052    0.9927
 -175.24   84.47  102.94     0.000307       0.9965    1.0107    0.9929
 -173.11   76.20  104.23     0.000114       0.9964    1.0105    0.9931
 -172.00   64.88  106.60     0.000314       0.9965    1.0102    0.9934
 -172.33   52.48  110.86     0.000013       0.9970    1.0096    0.9935
 -173.68   42.72  -62.71     0.000771       0.9979    1.0087    0.9934
 -175.27   36.56  -54.34     0.001812       0.9992    1.0076    0.9933
 -176.76   33.06  -42.99     0.002644       1.0006    1.0062    0.9932
 -178.16   31.36  -21.49     0.011943       1.0019    1.0050    0.9931
 -177.87   91.64   97.36     0.000150       0.9963    1.0109    0.9929
 -168.73   66.12  100.11     0.000373       0.9958    1.0105    0.9938
 -168.90   45.68  -75.76     0.000114       0.9962    1.0099    0.9940
 -171.21   31.38  -68.09     0.000634       0.9972    1.0090    0.9939
 -173.60   24.59  -58.52     0.001322       0.9986    1.0077    0.9937
 -175.55   21.33  -46.49     0.002264       1.0003    1.0063    0.9935
 -177.22   19.83  155.77     0.013377       1.0018    1.0048    0.9934
 -178.10   92.77   92.81     0.000055       0.9961    1.0110    0.9929
 -174.14   91.00   93.06     0.000747       0.9959    1.0110    0.9931
 -169.81   87.78   93.35     0.000957       0.9956    1.0110    0.9935
 -165.26   78.34   93.72     0.000289       0.9953    1.0107    0.9941
 -164.85   32.41  -82.61     0.000316       0.9954    1.0101    0.9946
 -169.52   13.93  -71.85     0.000661       0.9966    1.0091    0.9943
 -172.08    9.96  -61.54     0.000822       0.9982    1.0078    0.9940
 -173.25    8.36  130.00     0.002160       1.0000    1.0063    0.9938
 -173.75    7.55  151.43     0.013719       1.0017    1.0047    0.9936
 -178.93   89.06  162.68     0.000148       1.0022    1.0063    0.9915
 -179.40   88.26  163.59     0.000670       1.0022    1.0063    0.9916
 -179.92   87.56  164.77     0.000141       1.0022    1.0063    0.9916
 -179.83   85.96  171.31     0.000164       1.0026    1.0061    0.9913
 -179.30   85.76  173.54     0.000938       1.0026    1.0061    0.9913
 -178.81   85.61  175.98     0.000156       1.0026    1.0061    0.9914
 -178.90   88.69  142.81     0.000361       1.0012    1.0073    0.9916
 -179.72   84.25  145.44     0.000311       1.0013    1.0070    0.9917
  179.92   82.37  147.62     0.000391       1.0015    1.0069    0.9917
  179.79   80.82  150.46     0.000009       1.0018    1.0067    0.9916
 -179.71   78.69  159.13     0.000529       1.0023    1.0063    0.9914
 -179.23   78.03  165.50     0.002301       1.0025    1.0061    0.9914
 -178.80   77.60  173.26     0.000411       1.0025    1.0060    0.9915
 -179.51   77.85  135.70     0.000221       1.0005    1.0077    0.9919
 -179.64   75.14  138.91     0.000137       1.0009    1.0073    0.9918
 -179.55   72.98  143.24     0.000661       1.0014    1.0070    0.9917
 -179.28   71.33  149.28     0.001048       1.0019    1.0065    0.9917
 -178.95   70.15  158.06     0.002586       1.0023    1.0061    0.9916
 -178.68   69.43  170.42     0.000679       1.0025    1.0059    0.9917
 -178.55   73.51  126.82     0.000331       0.9994    1.0084    0.9922
 -178.66   69.51  130.29     0.000631       0.9999    1.0080    0.9921
 -178.65   66.26  134.92     0.001335       1.0006    1.0074    0.9920
 -178.55   63.76  141.37     0.001300       1.0013    1.0068    0.9920
 -178.44   61.98  151.23     0.001880       1.0019    1.0061    0.9920
 -178.45   60.90  167.33     0.000899       1.0024    1.0057    0.9920
 -178.42   88.34  114.05     0.000033       0.9978    1.0099    0.9924
 -177.21   63.85  123.38     0.000943       0.9990    1.0086    0.9925
 -177.33   59.26  128.32     0.001337       0.9997    1.0079    0.9924
 -177.47   55.77  135.00     0.001027       1.0006    1.0071    0.9924
 -177.69   53.33  145.15     0.000950       1.0015    1.0061    0.9924
 -178.08   51.89  163.90     0.000961       1.0023    1.0054    0.9924
 -175.69   74.15  110.42     0.000307       0.9971    1.0101    0.9928
 -175.21   65.85  113.13     0.000237       0.9974    1.0097    0.9929
 -175.21   58.09  117.09     0.000624       0.9980    1.0092    0.9929
 -175.53   51.73  122.47     0.000641       0.9988    1.0084    0.9928
 -176.02   47.03  -50.32     0.000593       0.9999    1.0074    0.9928
 -176.67   43.89  -39.70     0.000308       1.0011    1.0062    0.9928
 -177.54   42.13  160.69     0.000803       1.0021    1.0052    0.9928
 -178.04   89.61  102.36     0.000164       0.9965    1.0107    0.9929
 -175.70   82.94  103.06     0.000528       0.9964    1.0107    0.9930
 -172.64   63.33  106.75     0.000449       0.9966    1.0102    0.9933
 -172.54   52.10  110.79     0.000041       0.9971    1.0096    0.9934
 -174.20   37.14  -55.34     0.000015       0.9992    1.0076    0.9932
 -176.68   31.50  -22.50     0.000474       1.0019    1.0050    0.9932
 -169.33   63.52  100.25     0.000190       0.9958    1.0105    0.9937
 -169.03   45.22  -75.83     0.000246       0.9963    1.0099    0.9939
 -170.35   32.19  -68.97     0.000069       0.9972    1.0090    0.9938
 -173.48   21.79  -48.33     0.000166       1.0002    1.0063    0.9935
 -175.04   19.98  153.99     0.000284       1.0017    1.0048    0.9935
 -178.13   92.25   92.83     0.000010       0.9960    1.0110    0.9931
 -174.26   89.80   93.06     0.001046       0.9958    1.0110    0.9932
 -170.01   85.65   93.31     0.000838       0.9956    1.0110    0.9936
 -168.77    8.83  125.70     0.000197       1.0000    1.0063    0.9938
 -168.72    7.75  146.67     0.000010       1.0016    1.0047    0.9937
 -179.43   88.95  163.18     0.000654       1.0022    1.0063    0.9916
 -179.94   88.21  163.95     0.000143       1.0022    1.0063    0.9916
 -179.81   86.32  168.96     0.000163       1.0026    1.0062    0.9913
 -179.28   86.02  170.93     0.000899       1.0026    1.0062    0.9913
 -178.78   85.76  173.24     0.000151       1.0025    1.0061    0.9914
 -179.85   86.19  144.03     0.000321       1.0012    1.0071    0.9917
  179.85   84.16  145.40     0.000403       1.0014    1.0070    0.9916
  179.78   82.42  147.35     0.000049       1.0016    1.0069    0.9916
  179.97   80.97  150.05     0.000217       1.0019    1.0067    0.9915
 -179.61   79.79  153.76     0.000481       1.0021    1.0065    0.9914
 -179.09   78.83  158.75     0.001522       1.0023    1.0063    0.9914
 -178.63   78.08  165.32     0.000317       1.0024    1.0061    0.9915
 -179.70   80.83  133.25     0.000283       1.0002    1.0080    0.9919
 -179.67   77.84  135.46     0.000259       1.0006    1.0077    0.9918
 -179.44   75.32  138.52     0.000818       1.0010    1.0074    0.9917
 -179.04   73.23  142.80     0.000833       1.0014    1.0070    0.9916
 -178.59   71.55  148.94     0.000565       1.0019    1.0066    0.9916
 -178.26   70.27  157.90     0.000375       1.0022    1.0062    0.9917
 -178.93   77.72  124.24     0.000404       0.9991    1.0088    0.9922
 -178.73   73.43  126.63     0.000840       0.9995    1.0085    0.9921
 -178.44   69.72  129.92     0.001101       1.0000    1.0080    0.9920
 -178.08   66.60  134.46     0.000734       1.0006    1.0075    0.9920
 -177.65   62.16  151.08     0.000427       1.0019    1.0062    0.9920
 -179.01   87.34  114.22     0.000070       0.9977    1.0099    0.9925
 -177.78   75.03  116.91     0.000011       0.9981    1.0095    0.9925
 -177.34   69.26  119.48     0.000551       0.9985    1.0092    0.9924
 -176.96   64.10  123.02     0.000443       0.9990    1.0087    0.9924
 -176.77   53.58  144.90     0.000399       1.0015    1.0062    0.9924
 -177.36   80.52  108.85     0.000299       0.9970    1.0103    0.9928
 -176.23   73.10  110.47     0.000252       0.9972    1.0101    0.9928
 -175.41   65.53  113.03     0.000139       0.9975    1.0098    0.9928
 -175.59   44.21  -40.14     0.000463       1.0010    1.0062    0.9928
 -178.48   87.99  102.45     0.000458       0.9964    1.0107    0.9929
 -176.25   81.08  103.13     0.000103       0.9964    1.0107    0.9930
 -174.03   33.85  -44.89     0.000404       1.0006    1.0062    0.9932
 -175.63   31.59  -22.82     0.000613       1.0017    1.0050    0.9933
 -175.15   83.40   97.90     0.000210       0.9960    1.0109    0.9932
 -172.07   75.21   98.66     0.000105       0.9959    1.0108    0.9934
 -169.08   33.51  -70.08     0.000034       0.9973    1.0090    0.9938
 -171.73   22.20  -49.59     0.000358       1.0002    1.0063    0.9936
 -173.67   20.07  153.30     0.001310       1.0016    1.0048    0.9936
 -178.24   90.49   92.84     0.000080       0.9959    1.0110    0.9931
 -174.42   87.64   93.03     0.000536       0.9958    1.0110    0.9933
 -170.21   82.82   93.25     0.000109       0.9955    1.0110    0.9936
 -165.62    9.19  122.98     0.000039       0.9999    1.0063    0.9939
 -167.88    7.73  146.30     0.001490       1.0015    1.0047    0.9938
  179.83   89.22 -166.48     0.000145       1.0023    1.0062    0.9915
 -178.95   86.26 -170.59     0.000161       1.0025    1.0062    0.9914
 -179.44   85.84 -172.95     0.000850       1.0026    1.0061    0.9913
 -179.93   85.56 -175.76     0.000146       1.0026    1.0061    0.9913
 -179.98   88.41 -144.91     0.000338       1.0013    1.0072    0.9916
 -179.71   86.12 -145.59     0.000403       1.0013    1.0071    0.9916
 -179.33   83.88 -146.99     0.000062       1.0014    1.0070    0.9916
 -179.24   81.95 -149.04     0.000355       1.0017    1.0069    0.9915
 -179.61   80.41 -152.03     0.000441       1.0020    1.0067    0.9915
  179.96   79.18 -156.43     0.000782       1.0022    1.0064    0.9914
  179.58   78.25 -162.46     0.000271       1.0024    1.0062    0.9915
 -179.80   83.71   47.22     0.000388       1.0001    1.0082    0.9918
 -179.83   80.21   45.81     0.000432       1.0003    1.0080    0.9918
  179.79   77.25   43.66     0.000764       1.0007    1.0077    0.9917
  179.36   74.69 -139.63     0.000633       1.0011    1.0074    0.9916
  178.81   70.89 -151.51     0.000402       1.0019    1.0064    0.9917
  179.69   81.44   56.73     0.000389       0.9989    1.0092    0.9920
  179.05   76.94   55.31     0.000702       0.9992    1.0089    0.9920
  178.43   72.81   52.97     0.000649       0.9996    1.0086    0.9919
  177.72   63.37   37.26     0.000440       1.0013    1.0067    0.9920
  178.13   61.58   26.01     0.000541       1.0019    1.0060    0.9921
  178.71   79.73   64.69     0.000063       0.9979    1.0100    0.9922
  177.58   74.17   63.22     0.000250       0.9981    1.0097    0.9922
  176.64   68.78   60.79     0.000058       0.9985    1.0093    0.9923
  177.16   52.96   33.05     0.000854       1.0015    1.0060    0.9925
  179.44   84.87   72.21     0.000065       0.9970    1.0106    0.9925
  177.50   78.77   71.61     0.000089       0.9971    1.0105    0.9925
  175.91   43.68 -140.52     0.000806       1.0010    1.0060    0.9930
  177.85   41.95 -162.97     0.000123       1.0020    1.0051    0.9930
  178.89   84.81   78.23     0.000250       0.9965    1.0109    0.9927
  174.33   33.35 -134.97     0.000444       1.0006    1.0061    0.9934
  177.00   31.32 -158.78     0.000677       1.0018    1.0049    0.9934
  178.36   85.42   83.53     0.000006       0.9962    1.0110    0.9929
  174.92   81.03   83.24     0.000388       0.9962    1.0109    0.9930
  171.45   74.62   82.59     0.000412       0.9961    1.0107    0.9933
  172.17   21.65 -130.10     0.000165       1.0001    1.0061    0.9938
  175.55   19.76 -154.50     0.001189       1.0016    1.0048    0.9937
  177.99   86.65   88.28     0.000200       0.9961    1.0110    0.9930
  161.86   42.41  -93.99     0.000182       0.9956    1.0099    0.9946
  166.61    8.57 -122.96     0.000021       0.9999    1.0062    0.9940
  170.45    7.44 -147.52     0.001447       1.0015    1.0047    0.9938
 -178.96   86.78 -168.90     0.000159       1.0025    1.0062    0.9914
 -179.45   86.28 -170.85     0.000795       1.0026    1.0062    0.9913
 -179.94   85.91 -173.33     0.000143       1.0026    1.0061    0.9913
 -179.59   88.17 -144.88     0.000408       1.0013    1.0072    0.9916
 -179.24   85.82 -145.53     0.000067       1.0013    1.0071    0.9916
 -179.20   83.73 -146.77     0.000416       1.0015    1.0070    0.9915
 -179.62   82.00 -148.82     0.000419       1.0018    1.0068    0.9914
  179.90   80.52 -152.07     0.000260       1.0020    1.0066    0.9914
  179.49   79.31 -156.72     0.000273       1.0022    1.0064    0.9915
 -179.45   87.07   48.01     0.000466       1.0000    1.0083    0.9918
 -179.58   83.44   47.41     0.000546       1.0001    1.0082    0.9917
  179.92   80.26   46.11     0.000651       1.0004    1.0080    0.9917
  179.36   77.42   43.84     0.000354       1.0007    1.0077    0.9916
  178.57   72.76 -144.69     0.000392       1.0015    1.0069    0.9917
  178.57   71.05 -151.93     0.000555       1.0019    1.0064    0.9918
 -179.61   86.02   57.57     0.000360       0.9988    1.0093    0.9920
  179.58   81.44   56.98     0.000493       0.9990    1.0092    0.9919
  178.72   77.15   55.54     0.000456       0.9992    1.0089    0.9919
  177.54   63.56   36.85     0.000629       1.0013    1.0067    0.9921
  178.26   61.69   25.52     0.000219       1.0018    1.0060    0.9922
  178.49   79.94   64.88     0.000192       0.9980    1.0100    0.9922
  176.17   55.72   44.24     0.000068       1.0006    1.0070    0.9925
  177.38   53.06   32.46     0.000626       1.0014    1.0060    0.9926
  179.33   85.03   72.36     0.000161       0.9970    1.0106    0.9924
  177.21   79.28   71.76     0.000007       0.9971    1.0105    0.9925
  176.26   43.73 -141.22     0.000486       1.0009    1.0060    0.9931
  170.06   54.46   71.26     0.000111       0.9972    1.0095    0.9934
  174.89   33.35 -135.84     0.000295       1.0005    1.0061    0.9935
  178.21   86.33   83.59     0.000338       0.9963    1.0110    0.9928
  174.68   82.28   83.29     0.000381       0.9962    1.0109    0.9930
  171.12   76.34   82.63     0.000463       0.9961    1.0107    0.9932
  166.24   50.11   78.42     0.000146       0.9964    1.0097    0.9940
  173.18   21.56 -131.38     0.000116       1.0001    1.0061    0.9938
  177.05   19.78 -156.12     0.000001       1.0015    1.0048    0.9937
  177.92   87.87   88.31     0.000189       0.9962    1.0110    0.9929
  169.42    8.36 -126.03     0.000144       0.9998    1.0062    0.9941
  174.13    7.40 -151.42     0.000088       1.0014    1.0047    0.9939
 -178.96   87.37 -167.63     0.000155       1.0025    1.0062    0.9914
 -179.45   86.81 -169.14     0.000744       1.0026    1.0062    0.9913
 -179.95   86.35 -171.22     0.000141       1.0026    1.0062    0.9913
 -179.86   85.57  178.91     0.000160       1.0024    1.0061    0.9916
 -179.15   87.88 -144.81     0.000070       1.0013    1.0072    0.9916
 -179.11   85.67 -145.32     0.000429       1.0014    1.0071    0.9915
 -179.57   83.79 -146.57     0.000402       1.0016    1.0070    0.9914
  179.46   80.68 -152.34     0.000291       1.0020    1.0066    0.9914
  179.22   79.46 -157.12     0.000157       1.0021    1.0064    0.9915
 -179.80   77.55 -178.08     0.000507       1.0024    1.0060    0.9917
 -179.23   86.81   48.18     0.000587       1.0000    1.0083    0.9917
 -179.82   83.50   47.67     0.000569       1.0002    1.0082    0.9916
  179.51   80.45   46.25     0.000072       1.0005    1.0080    0.9916
  178.49   75.13 -139.84     0.000199       1.0011    1.0073    0.9917
  178.39   72.93 -145.07     0.000574       1.0014    1.0069    0.9918
  178.66   71.15 -152.35     0.000109       1.0018    1.0064    0.9919
 -179.81   69.34 -174.95     0.001149       1.0023    1.0058    0.9919
 -179.72   86.04   57.79     0.000318       0.9989    1.0093    0.9919
  179.25   81.67   57.15     0.000456       0.9990    1.0092    0.9919
  177.18   66.37   43.99     0.000062       1.0006    1.0074    0.9921
  177.76   63.61   36.37     0.000321       1.0012    1.0067    0.9922
 -179.89   60.80 -171.55     0.002138       1.0022    1.0056    0.9923
  178.11   80.42   64.99     0.000003       0.9980    1.0100    0.9921
  176.71   75.20   63.45     0.000018       0.9982    1.0097    0.9922
  176.53   55.70   43.69     0.000138       1.0005    1.0070    0.9926
  178.07   53.00   31.89     0.000443       1.0013    1.0060    0.9927
  179.96   51.75 -167.86     0.003654       1.0020    1.0054    0.9927
  179.04   85.62   72.46     0.000146       0.9971    1.0106    0.9924
  173.46   52.63   58.39     0.000085       0.9988    1.0082    0.9930
  174.98   47.13 -129.86     0.000034       0.9997    1.0072    0.9931
  177.19   43.58 -142.06     0.000972       1.0009    1.0060    0.9931
  179.76   41.99 -164.03     0.005571       1.0019    1.0051    0.9931
  172.76   74.63   76.79     0.000174       0.9966    1.0105    0.9929
  170.86   44.68 -115.02     0.000208       0.9979    1.0086    0.9936
  173.16   37.34 -124.00     0.000323       0.9990    1.0074    0.9936
  176.21   33.08 -137.09     0.001533       1.0004    1.0061    0.9935
  179.56   31.29 -160.78     0.008002       1.0017    1.0049    0.9935
  177.97   87.76   83.61     0.000394       0.9963    1.0110    0.9928
  174.40   83.96   83.27     0.000054       0.9962    1.0109    0.9930
  167.58   68.11   81.31     0.000011       0.9960    1.0104    0.9937
  167.81   34.22 -108.59     0.000060       0.9971    1.0088    0.9942
  171.28   25.25 -119.13     0.000508       0.9984    1.0076    0.9941
  175.32   21.16 -133.49     0.001875       1.0000    1.0061    0.9939
  179.51   19.68 -158.20     0.010560       1.0015    1.0048    0.9938
  177.82   89.65   88.30     0.000147       0.9962    1.0110    0.9929
  164.91   79.52   87.38     0.000106       0.9956    1.0105    0.9941
  164.86   15.84 -103.16     0.000287       0.9965    1.0089    0.9947
  169.92    9.73 -116.03     0.000658       0.9980    1.0077    0.9943
  175.09    7.84 -131.71     0.002033       0.9997    1.0062    0.9941
 -179.65    7.28 -157.45     0.012711       1.0014    1.0047    0.9939
 -178.94   88.02 -166.78     0.000152       1.0024    1.0063    0.9914
 -179.44   87.41 -167.85     0.000701       1.0025    1.0062    0.9913
 -179.94   86.89 -169.50     0.000140       1.0026    1.0062    0.9913
 -179.86   85.69 -178.39     0.000162       1.0024    1.0061    0.9916
 -179.31   85.60  179.29     0.000959       1.0024    1.0061    0.9916
 -178.98   87.71 -144.63     0.000420       1.0014    1.0072    0.9915
 -179.47   85.74 -145.14     0.000384       1.0015    1.0071    0.9914
  179.48   82.30 -149.11     0.000303       1.0018    1.0068    0.9914
  179.21   80.83 -152.72     0.000326       1.0019    1.0066    0.9915
 -179.86   77.88 -170.15     0.000549       1.0023    1.0061    0.9917
 -179.17   77.56 -177.73     0.002815       1.0024    1.0060    0.9917
 -179.45   86.87   48.41     0.000518       1.0001    1.0083    0.9916
  178.35   75.30 -140.19     0.000329       1.0010    1.0073    0.9918
  178.53   73.01 -145.47     0.000157       1.0014    1.0069    0.9918
  179.10   71.16 -152.64     0.000175       1.0017    1.0064    0.9919
  179.95   69.89 -162.26     0.001264       1.0021    1.0061    0.9919
 -179.08   69.33 -174.60     0.004569       1.0023    1.0059    0.9919
  179.98   86.27   57.91     0.000401       0.9989    1.0093    0.9918
  177.08   69.88   49.01     0.000104       1.0000    1.0080    0.9921
  177.47   66.36   43.56     0.000231       1.0005    1.0074    0.9922
  178.35   63.51   35.96     0.000898       1.0011    1.0067    0.9923
  179.59   61.59   24.99     0.002068       1.0017    1.0061    0.9923
 -179.05   60.74 -171.29     0.006236       1.0022    1.0056    0.9922
  175.37   64.61   56.71     0.000100       0.9989    1.0086    0.9925
  176.01   59.51   51.05     0.000539       0.9996    1.0078    0.9926
  177.32   55.45   43.13     0.001585       1.0004    1.0070    0.9927
  179.07   52.79   31.50     0.002735       1.0013    1.0061    0.9927
 -179.03   51.66 -167.75     0.008053       1.0020    1.0054    0.9926
  173.31   67.39   67.80     0.000066       0.9975    1.0097    0.9928
  173.15   59.50   63.77     0.000018       0.9979    1.0091    0.9930
  174.13   52.21   57.78     0.001002       0.9987    1.0083    0.9931
  176.04   46.66 -130.65     0.001955       0.9997    1.0072    0.9931
  178.46   43.25 -142.78     0.002990       1.0008    1.0061    0.9931
 -178.98   41.86 -164.21     0.009874       1.0019    1.0051    0.9930
  175.13   82.38   77.83     0.000307       0.9965    1.0108    0.9928
  172.48   75.67   76.68     0.000114       0.9965    1.0105    0.9930
  170.61   66.27   74.57     0.000314       0.9966    1.0101    0.9933
  170.30   54.57   70.68     0.000013       0.9970    1.0095    0.9936
  171.85   43.81 -115.87     0.000771       0.9978    1.0086    0.9937
  174.66   36.57 -125.22     0.001812       0.9990    1.0074    0.9936
  177.94   32.62 -138.34     0.002644       1.0004    1.0061    0.9935
 -178.75   31.14 -161.51     0.011943       1.0017    1.0050    0.9934
  177.72   89.36   83.57     0.000150       0.9963    1.0110    0.9928
  167.47   69.21   81.16     0.000373       0.9959    1.0104    0.9938
  166.68   49.80   77.78     0.000114       0.9962    1.0097    0.9942
  169.46   32.43 -110.03     0.000634       0.9970    1.0088    0.9942
  173.72   24.09 -121.31     0.001322       0.9984    1.0076    0.9941
  178.06   20.59 -135.84     0.002264       1.0000    1.0062    0.9939
 -177.84   19.52 -160.06     0.013377       1.0015    1.0048    0.9937
  177.73   91.59   88.27     0.000055       0.9961    1.0110    0.9929
  173.80   90.39   88.02     0.000747       0.9960    1.0110    0.9931
  169.50   88.47   87.67     0.000957       0.9958    1.0108    0.9935
  164.78   83.33   87.23     0.000289       0.9955    1.0105    0.9941
  162.14   44.18  -94.64     0.000316       0.9954    1.0099    0.9949
  169.97   12.33 -108.08     0.000661       0.9965    1.0089    0.9947
  176.94    8.34 -122.85     0.000822       0.9980    1.0077    0.9943
 -177.48    7.26 -138.86     0.002160       0.9998    1.0062    0.9940
 -172.75    7.17 -163.73     0.013719       1.0014    1.0047    0.9939
 -178.92   88.71 -166.36     0.000148       1.0024    1.0063    0.9914
 -179.42   88.06 -166.98     0.000670       1.0025    1.0062    0.9913
 -179.93   87.49 -168.20     0.000141       1.0025    1.0062    0.9913
 -179.85   85.92 -175.88     0.000164       1.0024    1.0061    0.9916
 -179.30   85.70 -178.01     0.000938       1.0024    1.0061    0.9916
 -178.81   85.56  179.65     0.000156       1.0025    1.0061    0.9915
 -179.33   87.79 -144.47     0.000361       1.0015    1.0072    0.9914
  179.57   84.11 -146.85     0.000311       1.0017    1.0070    0.9914
  179.25   82.45 -149.48     0.000391       1.0018    1.0068    0.9915
  179.23   80.94 -153.08     0.000009       1.0019    1.0066    0.9916
 -179.90   78.56 -163.22     0.000529       1.0021    1.0062    0.9917
 -179.23   77.84 -169.75     0.002301       1.0023    1.0061    0.9917
 -178.64   77.50 -177.34     0.000411       1.0025    1.0060    0.9916
  178.45   78.05   43.28     0.000221       1.0007    1.0076    0.9918
  178.53   75.34 -140.56     0.000137       1.0009    1.0073    0.9918
  179.00   72.95 -145.76     0.000661       1.0013    1.0069    0.9919
  179.77   71.05 -152.69     0.001048       1.0017    1.0065    0.9919
 -179.33   69.78 -161.97     0.002586       1.0021    1.0061    0.9919
 -178.74   69.25 -174.13     0.000679       1.0024    1.0059    0.9918
  177.27   73.88   52.59     0.000331       0.9995    1.0085    0.9921
  177.43   69.78   48.63     0.000631       0.9999    1.0080    0.9922
  178.11   66.13   43.19     0.001335       1.0004    1.0074    0.9922
  179.18   63.26   35.76     0.001300       1.0011    1.0067    0.9923
 -179.57   61.40   25.15     0.001880       1.0017    1.0061    0.9922
 -178.87   60.65    9.32     0.000899       1.0023    1.0056    0.9921
  178.97   86.58   65.67     0.000033       0.9979    1.0101    0.9921
  175.89   64.27   56.29     0.000943       0.9989    1.0086    0.9926
  176.85   59.04   50.55     0.001337       0.9995    1.0079    0.9927
  178.35   55.02   42.72     0.001027       1.0004    1.0070    0.9927
 -179.93   52.50   31.46     0.000950       1.0013    1.0061    0.9926
 -178.96   51.55 -166.97     0.000961       1.0022    1.0054    0.9925
  174.47   74.93   70.12     0.000307       0.9972    1.0102    0.9927
  173.60   67.11   67.47     0.000237       0.9974    1.0097    0.9929
  173.86   58.76   63.26     0.000624       0.9979    1.0091    0.9931
  175.24   51.36   57.08     0.000641       0.9986    1.0083    0.9932
  177.34   45.99 -131.35     0.000593       0.9997    1.0073    0.9931
  179.59   42.88 -143.03     0.000308       1.0009    1.0061    0.9930
 -178.94   41.75 -163.30     0.000803       1.0020    1.0051    0.9929
  177.78   88.56   78.28     0.000164       0.9965    1.0109    0.9927
  174.93   83.22   77.70     0.000528       0.9965    1.0108    0.9929
  170.96   65.68   74.26     0.000449       0.9965    1.0101    0.9934
  171.25   53.11   70.03     0.000041       0.9969    1.0095    0.9937
  176.38   35.60 -126.39     0.000015       0.9990    1.0075    0.9936
 -178.60   31.02 -160.66     0.000474       1.0018    1.0050    0.9933
  167.74   68.60   80.93     0.000190       0.9958    1.0104    0.9939
  167.97   46.58   76.88     0.000246       0.9961    1.0098    0.9943
  171.81   29.96 -111.93     0.000069       0.9970    1.0088    0.9942
 -179.56   20.06 -137.58     0.000166       1.0001    1.0062    0.9937
 -177.19   19.39 -159.73     0.000284       1.0016    1.0048    0.9936
  177.66   93.17   88.21     0.000010       0.9960    1.0110    0.9930
  173.75   92.24   87.93     0.001046       0.9959    1.0110    0.9932
  169.47   90.68   87.56     0.000838       0.9957    1.0108    0.9936
 -171.01    6.84 -144.82     0.000197       0.9998    1.0063    0.9939
 -168.97    7.09 -166.64     0.000010       1.0015    1.0048    0.9938
 -179.40   88.75 -166.56     0.000654       1.0025    1.0063    0.9913
 -179.91   88.15 -167.33     0.000143       1.0025    1.0062    0.9913
 -179.84   86.26 -173.56     0.000163       1.0024    1.0061    0.9916
 -179.30   85.91 -175.45     0.000899       1.0024    1.0061    0.9916
 -178.81   85.65 -177.62     0.000151       1.0025    1.0061    0.9915
  179.70   86.07 -145.42     0.000321       1.0016    1.0071    0.9914
  179.35   84.27 -147.19     0.000403       1.0016    1.0069    0.9915
  179.29   82.55 -149.82     0.000049       1.0017    1.0068    0.9916
  179.56   80.96 -153.28     0.000217       1.0018    1.0066    0.9917
 -179.92   79.57 -157.60     0.000481       1.0020    1.0064    0.9917
 -179.28   78.48 -162.89     0.001522       1.0022    1.0062    0.9917
 -178.79   77.75 -169.27     0.000317       1.0024    1.0061    0.9916
  178.69   81.09   45.69     0.000283       1.0004    1.0079    0.9917
  178.65   78.05   42.96     0.000259       1.0006    1.0076    0.9918
  179.01   75.22 -140.82     0.000818       1.0009    1.0073    0.9919
  179.67   72.76 -145.83     0.000833       1.0013    1.0069    0.9919
 -179.52   70.86 -152.46     0.000565       1.0017    1.0065    0.9919
 -179.18   69.69 -161.28     0.000375       1.0022    1.0061    0.9918
  177.73   78.18   55.06     0.000404       0.9992    1.0089    0.9921
  177.65   73.70   52.26     0.000840       0.9994    1.0085    0.9922
  178.08   69.44   48.32     0.001101       0.9999    1.0080    0.9922
  178.93   65.75   43.00     0.000734       1.0004    1.0074    0.9922
 -179.70   61.34   26.04     0.000427       1.0019    1.0061    0.9921
  178.71   86.98   65.53     0.000070       0.9978    1.0101    0.9922
  176.44   75.81   62.88     0.000011       0.9980    1.0096    0.9924
  176.23   69.62   60.03     0.000551       0.9983    1.0092    0.9926
  176.75   63.57   55.88     0.000443       0.9988    1.0086    0.9926
  179.66   52.50   32.56     0.000399       1.0015    1.0061    0.9924
  176.17   81.63   71.46     0.000299       0.9970    1.0104    0.9927
  174.78   74.46   69.85     0.000252       0.9971    1.0102    0.9928
  174.31   66.08   67.08     0.000139       0.9973    1.0097    0.9930
  178.98   42.93 -141.77     0.000463       1.0010    1.0062    0.9929
  177.64   89.12   78.13     0.000458       0.9964    1.0109    0.9928
  174.97   83.27   77.52     0.000103       0.9963    1.0108    0.9930
  178.44   32.28 -137.48     0.000404       1.0006    1.0062    0.9933
 -179.89   30.99 -158.89     0.000613       1.0019    1.0050    0.9932
  174.06   86.85   82.96     0.000210       0.9959    1.0109    0.9932
  170.76   79.98   82.19     0.000105       0.9958    1.0107    0.9936
  173.04   28.65 -112.69     0.000034       0.9971    1.0089    0.9941
  178.66   20.26 -135.25     0.000358       1.0002    1.0063    0.9936
 -179.26   19.37 -157.04     0.001310       1.0017    1.0048    0.9935
  177.72   91.81   88.18     0.000080       0.9959    1.0110    0.9931
  173.85   91.24   87.91     0.000536       0.9958    1.0110    0.9933
  169.63   89.76   87.55     0.000109       0.9955    1.0108    0.9937
 -175.86    6.98 -139.44     0.000039       0.9999    1.0063    0.9938
 -174.63    7.02 -160.26     0.001490       1.0016    1.0048    0.9937
