MORPHOLOGY AT STRAIN =    0.0025  FOR PHASE  1
   0.999   1.003   0.998  <-- AXES OF PHASE ELLIPSOID
  179.99   89.87   90.01  <-- EULER ANGLES OF PHASE ELLIPSOID (deg)
   1.001   1.006   0.993  <-- AVERAGE OF GRAIN AXES FOR PHASE
   0.002   0.002   0.001  <-- STANDARD DEV OF AVG GRAIN AXES FOR PHASE
B      1148
  179.98   89.98 -179.26     0.000000       1.0025    1.0060    0.9916
    0.08    0.00    0.00     0.000000       1.0019    1.0043    0.9939
  179.95   89.88   90.02     0.000000       0.9961    1.0108    0.9932
 -176.60  130.81   45.34     0.000000       1.0003    1.0069    0.9929
  179.97   90.16 -164.30     0.000145       1.0023    1.0061    0.9916
 -179.88   92.97 -168.50     0.000161       1.0024    1.0060    0.9916
 -179.91   93.46 -170.95     0.000850       1.0024    1.0060    0.9916
 -179.95   93.79 -173.73     0.000146       1.0025    1.0060    0.9916
  179.97   90.87 -143.45     0.000338       1.0013    1.0070    0.9917
 -179.83   92.97 -143.98     0.000403       1.0014    1.0070    0.9917
 -179.64   95.00 -145.32     0.000062       1.0015    1.0069    0.9917
 -179.50   96.91 -147.60     0.000355       1.0016    1.0068    0.9917
 -179.45   98.61 -150.91     0.000441       1.0018    1.0066    0.9917
 -179.52  100.03 -155.42     0.000782       1.0020    1.0063    0.9917
 -179.66  101.09 -161.26     0.000271       1.0022    1.0061    0.9917
 -179.47   94.94   48.36     0.000388       1.0001    1.0081    0.9919
 -179.04   98.22   46.88     0.000432       1.0003    1.0079    0.9919
 -178.75  101.34   44.44     0.000764       1.0006    1.0076    0.9919
 -178.65  104.19 -139.15     0.000633       1.0009    1.0073    0.9919
 -179.08  108.54 -151.12     0.000402       1.0017    1.0064    0.9920
 -178.90   96.72   57.47     0.000389       0.9990    1.0090    0.9921
 -178.13  101.19   55.92     0.000702       0.9992    1.0088    0.9921
 -177.60  105.57   53.37     0.000649       0.9995    1.0084    0.9922
 -178.19  116.25   37.03     0.000440       1.0011    1.0067    0.9923
 -178.93  118.19   26.12     0.000541       1.0018    1.0060    0.9923
 -178.10   98.10   65.04     0.000063       0.9980    1.0097    0.9924
 -176.86  103.66   63.50     0.000250       0.9981    1.0095    0.9924
 -176.02  109.43   60.93     0.000058       0.9984    1.0091    0.9925
 -178.19  127.12   32.35     0.000854       1.0013    1.0061    0.9926
 -179.15   92.98   72.27     0.000065       0.9971    1.0103    0.9926
 -177.08   98.74   71.66     0.000089       0.9972    1.0102    0.9927
    2.71   43.18  142.13     0.000806       1.0009    1.0061    0.9931
    0.81   41.57  -16.10     0.000123       1.0019    1.0051    0.9930
 -178.75   92.74   78.02     0.000250       0.9966    1.0106    0.9929
    3.70   32.43  137.39     0.000444       1.0005    1.0061    0.9935
    1.13   30.69  160.59     0.000677       1.0017    1.0049    0.9934
 -178.39   91.92   83.13     0.000006       0.9963    1.0107    0.9931
 -174.89   95.92   82.86     0.000388       0.9962    1.0107    0.9932
 -171.29  101.93   82.25     0.000412       0.9961    1.0106    0.9934
    4.59   20.35  133.74     0.000165       1.0001    1.0061    0.9938
    1.42   18.91  -22.17     0.001189       1.0016    1.0047    0.9937
 -178.19   90.60   87.79     0.000200       0.9961    1.0108    0.9932
   17.70   39.36   94.80     0.000182       0.9955    1.0098    0.9948
    5.03    6.97  -48.20     0.000021       0.9999    1.0061    0.9941
    1.68    6.41  -23.87     0.001447       1.0015    1.0046    0.9939
 -179.88   92.43 -166.85     0.000159       1.0024    1.0061    0.9916
 -179.90   93.01 -168.91     0.000795       1.0024    1.0060    0.9916
 -179.94   93.44 -171.37     0.000143       1.0024    1.0060    0.9916
 -179.98   90.92 -143.29     0.000408       1.0013    1.0071    0.9917
 -179.76   93.04 -143.92     0.000067       1.0014    1.0070    0.9917
 -179.57   95.08 -145.39     0.000416       1.0015    1.0069    0.9917
 -179.47   96.97 -147.79     0.000419       1.0016    1.0067    0.9917
 -179.48   98.64 -151.19     0.000260       1.0018    1.0065    0.9917
 -179.57  100.01 -155.73     0.000273       1.0020    1.0063    0.9917
 -179.88   91.61   49.11     0.000466       1.0001    1.0082    0.9919
 -179.38   94.98   48.41     0.000546       1.0001    1.0081    0.9919
 -178.96   98.27   46.84     0.000651       1.0003    1.0079    0.9919
 -178.70  101.39   44.30     0.000354       1.0006    1.0076    0.9919
 -178.84  106.63 -144.39     0.000392       1.0013    1.0068    0.9920
 -179.14  108.48 -151.32     0.000555       1.0017    1.0064    0.9920
 -179.69   92.23   58.24     0.000360       0.9989    1.0091    0.9921
 -178.78   96.71   57.51     0.000493       0.9990    1.0090    0.9921
 -178.03  101.19   55.89     0.000456       0.9992    1.0088    0.9921
 -178.28  116.20   36.87     0.000629       1.0011    1.0067    0.9923
 -178.97  118.10   26.06     0.000219       1.0018    1.0060    0.9923
 -177.98   98.03   65.07     0.000192       0.9980    1.0097    0.9924
 -177.11  124.37   43.74     0.000068       1.0004    1.0070    0.9927
 -178.24  127.03   32.29     0.000626       1.0014    1.0061    0.9926
 -179.08   92.91   72.32     0.000161       0.9971    1.0103    0.9926
 -176.97   98.61   71.68     0.000007       0.9972    1.0102    0.9927
    2.63   43.26  142.19     0.000486       1.0009    1.0061    0.9931
 -170.73  125.95   70.58     0.000111       0.9971    1.0094    0.9936
    3.57   32.50  137.48     0.000295       1.0005    1.0061    0.9935
 -178.36   91.83   83.15     0.000338       0.9963    1.0107    0.9931
 -174.84   95.71   82.87     0.000381       0.9962    1.0107    0.9932
 -171.24  101.68   82.23     0.000463       0.9961    1.0106    0.9934
 -167.09  131.71   77.56     0.000146       0.9962    1.0097    0.9942
    4.36   20.40  133.93     0.000116       1.0001    1.0061    0.9938
    1.36   19.01  -22.25     0.000001       1.0016    1.0047    0.9937
 -178.17   90.54   87.81     0.000189       0.9961    1.0108    0.9932
    4.25    7.01  -47.47     0.000144       0.9999    1.0061    0.9941
    1.36    6.50  -23.69     0.000088       1.0015    1.0046    0.9939
 -179.88   91.83 -165.59     0.000155       1.0023    1.0061    0.9916
 -179.90   92.47 -167.25     0.000744       1.0024    1.0061    0.9916
 -179.93   92.98 -169.33     0.000141       1.0024    1.0060    0.9916
 -179.99   93.80 -179.08     0.000160       1.0025    1.0060    0.9916
 -179.91   91.00 -143.23     0.000070       1.0013    1.0071    0.9917
 -179.69   93.12 -143.98     0.000429       1.0014    1.0070    0.9917
 -179.54   95.14 -145.58     0.000402       1.0015    1.0069    0.9917
 -179.53   98.62 -151.47     0.000291       1.0018    1.0065    0.9917
 -179.62   99.94 -155.95     0.000157       1.0020    1.0063    0.9917
 -179.94  101.87 -176.21     0.000507       1.0024    1.0059    0.9917
 -179.78   91.65   49.15     0.000587       1.0001    1.0082    0.9918
 -179.28   95.02   48.37     0.000569       1.0001    1.0081    0.9919
 -178.91   98.31   46.72     0.000072       1.0003    1.0079    0.9919
 -178.74  104.22 -139.54     0.000199       1.0009    1.0072    0.9919
 -178.92  106.58 -144.55     0.000574       1.0013    1.0068    0.9919
 -179.19  108.39 -151.37     0.000109       1.0017    1.0064    0.9919
 -179.83  110.19 -173.25     0.001149       1.0024    1.0058    0.9919
 -179.58   92.21   58.28     0.000318       0.9989    1.0091    0.9921
 -178.68   96.70   57.48     0.000456       0.9990    1.0090    0.9921
 -177.84  113.34   44.09     0.000062       1.0005    1.0073    0.9923
 -178.35  116.13   36.83     0.000321       1.0011    1.0067    0.9923
 -179.65  118.93 -170.17     0.002138       1.0022    1.0056    0.9922
 -177.86   97.96   65.05     0.000003       0.9980    1.0097    0.9924
 -176.70  103.59   63.41     0.000018       0.9981    1.0095    0.9925
 -177.20  124.31   43.69     0.000138       1.0004    1.0070    0.9926
 -178.26  126.95   32.38     0.000443       1.0014    1.0061    0.9926
 -179.42  128.23 -166.88     0.003654       1.0021    1.0054    0.9926
 -178.98   92.78   72.34     0.000146       0.9971    1.0103    0.9926
 -174.44  127.87   57.83     0.000085       0.9987    1.0082    0.9931
    4.23   46.74  130.30     0.000034       0.9997    1.0072    0.9931
    2.59   43.34  142.13     0.000972       1.0009    1.0061    0.9930
    0.86   41.74  -16.53     0.005571       1.0019    1.0051    0.9930
 -173.19  104.85   76.44     0.000174       0.9966    1.0104    0.9932
    7.92   43.43  115.97     0.000208       0.9979    1.0085    0.9936
    5.85   36.47  124.96     0.000323       0.9991    1.0074    0.9936
    3.50   32.56  137.45     0.001533       1.0005    1.0061    0.9935
    1.14   30.85  160.18     0.008002       1.0017    1.0049    0.9934
 -178.32   91.74   83.16     0.000394       0.9963    1.0107    0.9931
 -174.80   95.58   82.86     0.000054       0.9962    1.0107    0.9932
 -168.16  113.04   80.89     0.000011       0.9960    1.0103    0.9939
   10.49   31.76  110.20     0.000060       0.9971    1.0088    0.9942
    7.29   23.95  120.64     0.000508       0.9985    1.0076    0.9940
    4.20   20.45  133.98     0.001875       1.0001    1.0061    0.9938
    1.33   19.07  -22.50     0.010560       1.0016    1.0047    0.9937
 -178.15   90.52   87.82     0.000147       0.9961    1.0108    0.9932
 -165.08  100.97   87.15     0.000106       0.9955    1.0104    0.9942
   11.64   12.42  106.80     0.000287       0.9966    1.0089    0.9946
    7.01    8.37  119.24     0.000658       0.9981    1.0076    0.9943
    3.68    7.03  -47.02     0.002033       0.9999    1.0061    0.9940
    1.08    6.55  -23.69     0.012711       1.0015    1.0046    0.9939
 -179.89   91.17 -164.74     0.000152       1.0023    1.0061    0.9916
 -179.90   91.87 -165.99     0.000701       1.0023    1.0061    0.9916
 -179.93   92.45 -167.66     0.000140       1.0024    1.0061    0.9916
 -179.98   93.68 -176.30     0.000162       1.0025    1.0060    0.9916
 -179.96   93.77 -178.67     0.000959       1.0025    1.0060    0.9916
 -179.83   91.07 -143.29     0.000420       1.0013    1.0071    0.9917
 -179.65   93.18 -144.16     0.000384       1.0014    1.0070    0.9917
 -179.53   96.99 -148.30     0.000303       1.0016    1.0067    0.9917
 -179.58   98.56 -151.67     0.000326       1.0018    1.0065    0.9917
 -179.83  101.49 -168.14     0.000549       1.0024    1.0060    0.9917
 -179.90  101.84 -175.80     0.002815       1.0024    1.0059    0.9917
 -179.68   91.68   49.11     0.000518       1.0001    1.0082    0.9919
 -178.82  104.18 -139.68     0.000329       1.0009    1.0072    0.9919
 -178.98  106.50 -144.60     0.000157       1.0013    1.0068    0.9919
 -179.21  108.30 -151.28     0.000175       1.0017    1.0064    0.9919
 -179.48  109.53 -160.52     0.001264       1.0021    1.0060    0.9919
 -179.77  110.16 -172.84     0.004569       1.0024    1.0058    0.9919
 -179.47   92.19   58.25     0.000401       0.9989    1.0091    0.9921
 -177.66  109.75   49.21     0.000104       0.9999    1.0079    0.9922
 -177.93  113.28   44.04     0.000231       1.0005    1.0073    0.9922
 -178.38  116.04   36.90     0.000898       1.0011    1.0067    0.9922
 -178.95  117.93   26.39     0.002068       1.0018    1.0061    0.9922
 -179.59  118.89 -169.73     0.006236       1.0022    1.0056    0.9922
 -176.04  115.28   56.69     0.000100       0.9989    1.0085    0.9926
 -176.47  120.32   51.25     0.000539       0.9996    1.0078    0.9926
 -177.25  124.25   43.74     0.001585       1.0005    1.0070    0.9926
 -178.24  126.88   32.57     0.002735       1.0014    1.0061    0.9926
 -179.36  128.20 -166.47     0.008053       1.0021    1.0054    0.9926
 -174.06  112.78   67.56     0.000066       0.9975    1.0096    0.9930
 -173.90  120.79   63.56     0.000018       0.9980    1.0090    0.9931
 -174.58  127.90   57.76     0.001002       0.9987    1.0082    0.9931
    4.16   46.78  130.27     0.001955       0.9997    1.0072    0.9931
    2.60   43.39  141.96     0.002990       1.0009    1.0061    0.9930
    0.92   41.76  -16.93     0.009874       1.0019    1.0051    0.9930
 -175.75   97.79   77.53     0.000307       0.9966    1.0105    0.9930
 -173.22  104.94   76.37     0.000114       0.9965    1.0104    0.9932
 -171.46  114.75   74.23     0.000314       0.9967    1.0100    0.9934
 -171.12  126.42   70.30     0.000013       0.9971    1.0094    0.9936
    7.73   43.33  116.08     0.000771       0.9979    1.0086    0.9936
    5.74   36.48  124.96     0.001812       0.9991    1.0074    0.9936
    3.49   32.60  137.31     0.002644       1.0005    1.0061    0.9935
    1.19   30.88  159.77     0.011943       1.0017    1.0049    0.9934
 -178.28   91.67   83.16     0.000150       0.9963    1.0107    0.9931
 -168.28  113.47   80.82     0.000373       0.9959    1.0103    0.9939
 -167.58  132.74   77.23     0.000114       0.9962    1.0097    0.9942
   10.25   31.57  110.35     0.000634       0.9971    1.0088    0.9942
    7.14   23.93  120.69     0.001322       0.9985    1.0076    0.9940
    4.15   20.47  133.88     0.002264       1.0001    1.0061    0.9938
    1.36   19.08  -22.90     0.013377       1.0016    1.0047    0.9937
 -178.13   90.54   87.82     0.000055       0.9961    1.0108    0.9932
 -174.21   91.75   87.70     0.000747       0.9960    1.0108    0.9933
 -169.87   94.09   87.48     0.000957       0.9957    1.0107    0.9937
 -165.14  101.46   87.14     0.000289       0.9954    1.0104    0.9943
   16.68   34.44   95.58     0.000316       0.9955    1.0098    0.9948
   11.35   12.28  107.01     0.000661       0.9966    1.0089    0.9945
    6.81    8.35  119.33     0.000822       0.9981    1.0077    0.9943
    3.48    7.03  -46.96     0.002160       0.9999    1.0061    0.9940
    0.93    6.55  -23.91     0.013719       1.0015    1.0046    0.9939
 -179.91   90.48 -164.32     0.000148       1.0023    1.0061    0.9916
 -179.91   91.21 -165.14     0.000670       1.0023    1.0061    0.9916
 -179.93   91.84 -166.39     0.000141       1.0023    1.0061    0.9916
 -179.98   93.44 -173.68     0.000164       1.0025    1.0060    0.9916
 -179.96   93.65 -175.89     0.000938       1.0025    1.0060    0.9916
 -179.93   93.80 -178.26     0.000156       1.0025    1.0060    0.9916
 -179.78   91.13 -143.46     0.000361       1.0013    1.0070    0.9917
 -179.59   95.16 -146.05     0.000311       1.0015    1.0069    0.9917
 -179.59   96.93 -148.48     0.000391       1.0016    1.0067    0.9917
 -179.63   98.47 -151.73     0.000009       1.0018    1.0065    0.9917
 -179.73  100.75 -161.22     0.000529       1.0022    1.0061    0.9917
 -179.79  101.46 -167.71     0.002301       1.0024    1.0060    0.9917
 -179.86  101.87 -175.40     0.000411       1.0024    1.0059    0.9917
 -178.87  101.39   43.82     0.000221       1.0006    1.0075    0.9919
 -178.90  104.11 -139.73     0.000137       1.0009    1.0072    0.9919
 -179.02  106.42 -144.52     0.000661       1.0013    1.0068    0.9919
 -179.20  108.23 -151.07     0.001048       1.0017    1.0064    0.9919
 -179.43  109.50 -160.16     0.002586       1.0021    1.0060    0.9919
 -179.74  110.18 -172.45     0.000679       1.0023    1.0058    0.9919
 -177.77  105.65   52.89     0.000331       0.9995    1.0084    0.9922
 -177.77  109.72   49.17     0.000631       0.9999    1.0079    0.9922
 -177.98  113.22   44.10     0.001335       1.0005    1.0073    0.9922
 -178.37  115.98   37.07     0.001300       1.0011    1.0067    0.9922
 -178.90  117.90   26.68     0.001880       1.0018    1.0061    0.9922
 -179.55  118.91 -169.35     0.000899       1.0022    1.0056    0.9922
 -179.11   92.49   65.74     0.000033       0.9979    1.0098    0.9924
 -176.17  115.30   56.64     0.000943       0.9989    1.0085    0.9926
 -176.54  120.28   51.29     0.001337       0.9996    1.0078    0.9926
 -177.24  124.19   43.88     0.001027       1.0004    1.0070    0.9926
 -178.19  126.86   32.83     0.000950       1.0013    1.0061    0.9926
 -179.30  128.22 -166.07     0.000961       1.0021    1.0054    0.9926
 -175.19  105.20   70.03     0.000307       0.9972    1.0100    0.9928
 -174.21  112.93   67.47     0.000237       0.9975    1.0096    0.9930
 -174.05  120.89   63.51     0.000624       0.9980    1.0090    0.9931
 -174.67  127.90   57.78     0.000641       0.9987    1.0082    0.9931
    4.16   46.82  130.14     0.000593       0.9997    1.0072    0.9931
    2.66   43.41  141.72     0.000308       1.0009    1.0061    0.9930
    0.98   41.74  -17.33     0.000803       1.0019    1.0051    0.9930
 -178.50   92.26   78.03     0.000164       0.9966    1.0106    0.9929
 -175.75   97.80   77.48     0.000528       0.9966    1.0105    0.9930
 -171.62  115.04   74.15     0.000449       0.9966    1.0100    0.9934
 -171.29  126.62   70.23     0.000041       0.9971    1.0094    0.9936
    5.74   36.50  124.85     0.000015       0.9991    1.0075    0.9935
    1.26   30.85  159.39     0.000474       1.0017    1.0049    0.9934
 -168.42  114.02   80.77     0.000190       0.9959    1.0103    0.9939
 -167.76  133.15   77.15     0.000246       0.9962    1.0097    0.9942
   10.18   31.51  110.33     0.000069       0.9971    1.0088    0.9941
    4.24   20.45  133.64     0.000166       1.0001    1.0061    0.9938
    1.42   19.04  -23.25     0.000284       1.0016    1.0047    0.9937
 -178.11   90.60   87.80     0.000010       0.9961    1.0108    0.9932
 -174.21   91.92   87.69     0.001046       0.9960    1.0108    0.9933
 -169.90   94.46   87.48     0.000838       0.9957    1.0107    0.9937
    3.86    7.01  -47.48     0.000197       0.9999    1.0062    0.9940
    0.95    6.50  -24.22     0.000010       1.0015    1.0046    0.9939
 -179.92   90.52 -164.72     0.000654       1.0023    1.0061    0.9916
 -179.94   91.18 -165.53     0.000143       1.0023    1.0061    0.9916
 -179.97   93.08 -171.34     0.000163       1.0024    1.0060    0.9916
 -179.95   93.41 -173.27     0.000899       1.0025    1.0060    0.9916
 -179.93   93.68 -175.48     0.000151       1.0025    1.0060    0.9916
 -179.69   93.19 -144.61     0.000321       1.0014    1.0070    0.9917
 -179.65   95.10 -146.22     0.000403       1.0015    1.0068    0.9917
 -179.65   96.85 -148.54     0.000049       1.0016    1.0067    0.9917
 -179.66   98.38 -151.64     0.000217       1.0018    1.0065    0.9917
 -179.68   99.68 -155.68     0.000481       1.0020    1.0063    0.9917
 -179.70  100.72 -160.84     0.001522       1.0022    1.0061    0.9917
 -179.75  101.49 -167.34     0.000317       1.0023    1.0060    0.9917
 -179.05   98.31   46.27     0.000283       1.0003    1.0078    0.9919
 -178.96  101.33   43.78     0.000259       1.0006    1.0075    0.9919
 -178.95  104.04 -139.66     0.000818       1.0009    1.0072    0.9919
 -179.02  106.35 -144.35     0.000833       1.0013    1.0068    0.9919
 -179.15  108.19 -150.80     0.000565       1.0017    1.0064    0.9919
 -179.39  109.51 -159.81     0.000375       1.0021    1.0060    0.9919
 -178.15  101.26   55.44     0.000404       0.9992    1.0087    0.9922
 -177.88  105.65   52.85     0.000840       0.9995    1.0084    0.9922
 -177.84  109.68   49.21     0.001101       0.9999    1.0079    0.9922
 -177.99  113.16   44.23     0.000734       1.0005    1.0074    0.9922
 -178.84  117.92   26.97     0.000427       1.0017    1.0061    0.9922
 -179.08   92.46   65.65     0.000070       0.9979    1.0098    0.9924
 -176.90  103.74   63.11     0.000011       0.9981    1.0095    0.9925
 -176.37  109.65   60.47     0.000551       0.9984    1.0091    0.9926
 -176.26  115.29   56.67     0.000443       0.9989    1.0085    0.9926
 -178.12  126.88   33.08     0.000399       1.0013    1.0061    0.9926
 -176.86   98.50   71.47     0.000299       0.9971    1.0102    0.9927
 -175.31  105.35   69.96     0.000252       0.9972    1.0100    0.9928
 -174.35  113.06   67.43     0.000139       0.9975    1.0096    0.9930
    2.76   43.39  141.49     0.000463       1.0009    1.0061    0.9930
 -178.48   92.21   77.98     0.000458       0.9966    1.0106    0.9929
 -175.80   97.91   77.42     0.000103       0.9966    1.0105    0.9930
    3.68   32.58  136.84     0.000404       1.0004    1.0062    0.9934
    1.33   30.77  159.13     0.000613       1.0017    1.0049    0.9934
 -174.82   95.79   82.77     0.000210       0.9962    1.0107    0.9932
 -171.40  102.42   82.11     0.000105       0.9960    1.0106    0.9935
   10.29   31.58  110.14     0.000034       0.9971    1.0088    0.9941
    4.49   20.43  133.29     0.000358       1.0001    1.0062    0.9938
    1.53   18.97  -23.55     0.001310       1.0016    1.0047    0.9937
 -178.10   90.59   87.78     0.000080       0.9961    1.0108    0.9932
 -174.22   92.15   87.67     0.000536       0.9960    1.0108    0.9933
 -169.93   94.97   87.48     0.000109       0.9957    1.0107    0.9937
    4.67    6.98  -48.38     0.000039       0.9999    1.0062    0.9940
    1.41    6.42  -24.86     0.001490       1.0015    1.0046    0.9939
 -179.99   90.16  164.17     0.000145       1.0023    1.0061    0.9916
  179.98   92.99  168.33     0.000161       1.0024    1.0060    0.9916
  179.97   93.47  170.76     0.000850       1.0024    1.0060    0.9916
  179.97   93.79  173.54     0.000146       1.0025    1.0060    0.9916
  180.00   90.86  143.38     0.000338       1.0013    1.0071    0.9917
  179.83   92.97  143.92     0.000403       1.0013    1.0070    0.9917
  179.67   95.02  145.27     0.000062       1.0014    1.0069    0.9917
  179.57   96.94  147.52     0.000355       1.0016    1.0068    0.9917
  179.55   98.64  150.80     0.000441       1.0018    1.0066    0.9917
  179.59  100.05  155.26     0.000782       1.0020    1.0063    0.9917
  179.68  101.10  161.08     0.000271       1.0022    1.0061    0.9917
  179.46   94.94  131.60     0.000388       1.0001    1.0081    0.9919
  179.07   98.24  133.09     0.000432       1.0003    1.0079    0.9919
  178.81  101.38  135.52     0.000764       1.0005    1.0076    0.9919
  178.73  104.23  139.08     0.000633       1.0009    1.0073    0.9919
  179.11  108.55  150.98     0.000402       1.0017    1.0064    0.9920
  178.88   96.71  122.50     0.000389       0.9990    1.0090    0.9921
  178.14  101.20  124.06     0.000702       0.9992    1.0088    0.9921
  177.65  105.61  126.60     0.000649       0.9995    1.0084    0.9922
  178.23  116.26  142.87     0.000440       1.0011    1.0067    0.9923
  178.93  118.19  153.73     0.000541       1.0018    1.0060    0.9923
  178.07   98.07  114.94     0.000063       0.9980    1.0097    0.9924
  176.86  103.65  116.48     0.000250       0.9981    1.0095    0.9924
  176.05  109.45  119.05     0.000058       0.9984    1.0091    0.9925
  178.21  127.12  147.54     0.000854       1.0013    1.0061    0.9926
  179.12   92.93  107.72     0.000065       0.9971    1.0103    0.9926
  177.05   98.68  108.33     0.000089       0.9972    1.0102    0.9927
   -2.68   43.18   37.95     0.000806       1.0009    1.0061    0.9931
   -0.78   41.57   16.28     0.000123       1.0019    1.0051    0.9930
  178.72   92.69  101.99     0.000250       0.9966    1.0106    0.9929
   -3.63   32.42   42.64     0.000444       1.0005    1.0061    0.9935
   -1.06   30.69   19.54     0.000677       1.0017    1.0049    0.9934
  178.37   91.89   96.90     0.000006       0.9963    1.0107    0.9931
  174.88   95.89   97.17     0.000388       0.9962    1.0107    0.9932
  171.30  101.91   97.77     0.000412       0.9961    1.0106    0.9934
   -4.44   20.33   46.19     0.000165       1.0001    1.0061    0.9938
   -1.26   18.91   22.20     0.001189       1.0016    1.0047    0.9937
  178.17   90.59   92.25     0.000200       0.9961    1.0108    0.9932
  -17.52   38.67   85.08     0.000182       0.9955    1.0098    0.9948
   -4.51    6.95   47.76     0.000021       0.9999    1.0061    0.9941
   -1.11    6.41   23.45     0.001447       1.0015    1.0046    0.9939
  179.98   92.45  166.68     0.000159       1.0024    1.0061    0.9916
  179.96   93.02  168.73     0.000795       1.0024    1.0060    0.9916
  179.95   93.44  171.18     0.000143       1.0024    1.0060    0.9916
  179.97   90.93  143.23     0.000408       1.0013    1.0071    0.9917
  179.79   93.06  143.86     0.000067       1.0013    1.0070    0.9917
  179.65   95.12  145.33     0.000416       1.0014    1.0069    0.9917
  179.57   97.01  147.69     0.000419       1.0016    1.0067    0.9917
  179.55   98.66  151.06     0.000260       1.0018    1.0065    0.9917
  179.59  100.02  155.56     0.000273       1.0020    1.0063    0.9917
  179.86   91.61  130.86     0.000466       1.0001    1.0082    0.9919
  179.40   95.01  131.56     0.000546       1.0001    1.0081    0.9919
  179.02   98.31  133.13     0.000651       1.0003    1.0079    0.9919
  178.79  101.44  135.64     0.000354       1.0006    1.0076    0.9919
  178.88  106.64  144.27     0.000392       1.0013    1.0068    0.9919
  179.14  108.48  151.17     0.000555       1.0017    1.0064    0.9919
  179.67   92.22  121.73     0.000360       0.9989    1.0091    0.9921
  178.79   96.73  122.47     0.000493       0.9990    1.0090    0.9921
  178.07  101.23  124.09     0.000456       0.9992    1.0088    0.9921
  178.29  116.20  143.01     0.000629       1.0011    1.0067    0.9923
  178.96  118.09  153.79     0.000219       1.0018    1.0060    0.9923
  177.97   98.03  114.91     0.000192       0.9980    1.0097    0.9924
  177.13  124.37  136.18     0.000068       1.0004    1.0070    0.9926
  178.25  127.03  147.58     0.000626       1.0014    1.0061    0.9926
  179.05   92.85  107.67     0.000161       0.9971    1.0103    0.9926
  176.96   98.58  108.31     0.000007       0.9972    1.0102    0.9927
   -2.61   43.26   37.91     0.000486       1.0009    1.0061    0.9931
  170.82  126.05  109.44     0.000111       0.9971    1.0094    0.9936
   -3.53   32.50   42.59     0.000295       1.0005    1.0061    0.9935
  178.34   91.79   96.88     0.000338       0.9963    1.0107    0.9931
  174.84   95.71   97.16     0.000381       0.9962    1.0107    0.9932
  171.26  101.72   97.79     0.000463       0.9961    1.0106    0.9935
  167.20  131.91  102.50     0.000146       0.9962    1.0097    0.9942
   -4.28   20.40   46.09     0.000116       1.0001    1.0061    0.9938
   -1.29   19.01   22.37     0.000001       1.0016    1.0047    0.9937
  178.15   90.53   92.23     0.000189       0.9961    1.0108    0.9932
   -4.06    7.01   47.38     0.000144       0.9999    1.0061    0.9940
   -1.09    6.50   23.60     0.000088       1.0015    1.0046    0.9939
  179.99   91.84  165.42     0.000155       1.0023    1.0061    0.9916
  179.96   92.48  167.07     0.000744       1.0024    1.0061    0.9916
  179.95   92.99  169.14     0.000141       1.0024    1.0060    0.9916
 -179.99   93.80  178.90     0.000160       1.0025    1.0060    0.9916
  179.94   91.02  143.18     0.000070       1.0013    1.0071    0.9917
  179.77   93.16  143.92     0.000429       1.0013    1.0070    0.9917
  179.64   95.19  145.48     0.000402       1.0015    1.0069    0.9917
  179.55   98.63  151.32     0.000291       1.0018    1.0065    0.9917
  179.61   99.94  155.79     0.000157       1.0020    1.0063    0.9917
  179.96  101.87  176.02     0.000507       1.0024    1.0059    0.9917
  179.80   91.67  130.82     0.000587       1.0000    1.0082    0.9919
  179.34   95.07  131.60     0.000569       1.0001    1.0081    0.9919
  178.99   98.37  133.23     0.000072       1.0003    1.0079    0.9919
  178.78  104.24  139.44     0.000199       1.0009    1.0072    0.9919
  178.92  106.58  144.43     0.000574       1.0013    1.0068    0.9919
  179.18  108.39  151.24     0.000109       1.0017    1.0064    0.9919
  179.85  110.19  173.06     0.001149       1.0023    1.0058    0.9919
  179.59   92.24  121.70     0.000318       0.9989    1.0091    0.9921
  178.72   96.75  122.50     0.000456       0.9990    1.0090    0.9921
  177.85  113.34  135.82     0.000062       1.0005    1.0073    0.9922
  178.34  116.12  143.07     0.000321       1.0011    1.0067    0.9923
  179.67  118.93  169.97     0.002138       1.0022    1.0056    0.9922
  177.89   98.01  114.93     0.000003       0.9980    1.0097    0.9924
  176.75  103.66  116.57     0.000018       0.9981    1.0095    0.9925
  177.20  124.30  136.22     0.000138       1.0004    1.0070    0.9926
  178.26  126.94  147.50     0.000443       1.0014    1.0061    0.9926
  179.42  128.23  166.68     0.003654       1.0021    1.0054    0.9926
  178.96   92.76  107.66     0.000146       0.9971    1.0103    0.9926
  174.47  127.88  122.12     0.000085       0.9987    1.0082    0.9931
   -4.23   46.75   49.78     0.000034       0.9997    1.0072    0.9931
   -2.60   43.35   37.99     0.000972       1.0009    1.0061    0.9930
   -0.87   41.74   16.74     0.005571       1.0019    1.0051    0.9930
  173.22  104.90  103.57     0.000174       0.9966    1.0104    0.9932
   -7.88   43.42   64.06     0.000208       0.9979    1.0085    0.9936
   -5.85   36.49   55.12     0.000323       0.9991    1.0074    0.9936
   -3.53   32.58   42.68     0.001533       1.0005    1.0061    0.9935
   -1.18   30.86   20.05     0.008002       1.0017    1.0049    0.9934
  178.30   91.72   96.87     0.000394       0.9963    1.0107    0.9931
  174.80   95.61   97.17     0.000054       0.9962    1.0107    0.9932
  168.23  113.23   99.13     0.000011       0.9960    1.0102    0.9939
  -10.46   31.77   69.83     0.000060       0.9971    1.0088    0.9942
   -7.33   23.99   59.46     0.000508       0.9985    1.0076    0.9940
   -4.26   20.47   46.18     0.001875       1.0001    1.0061    0.9938
   -1.41   19.07   22.76     0.010560       1.0016    1.0047    0.9937
  178.13   90.53   92.22     0.000147       0.9961    1.0108    0.9932
  165.13  101.40   92.87     0.000106       0.9955    1.0104    0.9943
  -11.82   12.59   73.43     0.000287       0.9966    1.0089    0.9946
   -7.35    8.47   61.18     0.000658       0.9981    1.0076    0.9943
   -3.99    7.07   47.43     0.002033       0.9999    1.0061    0.9940
   -1.30    6.56   24.09     0.012711       1.0015    1.0046    0.9939
  180.00   91.18  164.58     0.000152       1.0023    1.0061    0.9916
  179.96   91.88  165.81     0.000701       1.0023    1.0061    0.9916
  179.94   92.45  167.47     0.000140       1.0024    1.0061    0.9916
  180.00   93.68  176.12     0.000162       1.0025    1.0060    0.9916
 -179.98   93.77  178.49     0.000959       1.0025    1.0060    0.9916
  179.91   91.11  143.23     0.000420       1.0013    1.0071    0.9917
  179.75   93.22  144.07     0.000384       1.0014    1.0070    0.9917
  179.56   97.00  148.16     0.000303       1.0016    1.0067    0.9917
  179.57   98.56  151.52     0.000326       1.0018    1.0065    0.9917
  179.84  101.49  167.97     0.000549       1.0023    1.0060    0.9917
  179.95  101.84  175.62     0.002815       1.0024    1.0059    0.9917
  179.74   91.74  130.86     0.000518       1.0001    1.0082    0.9919
  178.82  104.18  139.58     0.000329       1.0009    1.0072    0.9919
  178.96  106.49  144.49     0.000157       1.0013    1.0068    0.9919
  179.20  108.29  151.17     0.000175       1.0017    1.0064    0.9919
  179.50  109.53  160.38     0.001264       1.0021    1.0060    0.9919
  179.82  110.16  172.65     0.004569       1.0023    1.0058    0.9919
  179.51   92.26  121.73     0.000401       0.9989    1.0091    0.9921
  177.67  109.76  130.71     0.000104       0.9999    1.0079    0.9922
  177.92  113.27  135.87     0.000231       1.0005    1.0073    0.9922
  178.37  116.04  143.01     0.000898       1.0011    1.0067    0.9922
  178.96  117.93  153.49     0.002068       1.0018    1.0061    0.9922
  179.63  118.89  169.54     0.006236       1.0022    1.0056    0.9922
  176.06  115.29  123.25     0.000100       0.9989    1.0085    0.9926
  176.46  120.31  128.68     0.000539       0.9996    1.0078    0.9926
  177.24  124.23  136.18     0.001585       1.0004    1.0070    0.9926
  178.24  126.87  147.31     0.002735       1.0013    1.0061    0.9926
  179.37  128.20  166.27     0.008053       1.0021    1.0054    0.9926
  174.11  112.85  112.42     0.000066       0.9975    1.0096    0.9930
  173.92  120.80  116.40     0.000018       0.9980    1.0090    0.9931
  174.58  127.87  122.17     0.001002       0.9987    1.0082    0.9931
   -4.18   46.81   49.82     0.001955       0.9997    1.0072    0.9931
   -2.63   43.41   38.17     0.002990       1.0009    1.0061    0.9930
   -0.95   41.77   17.15     0.009874       1.0019    1.0051    0.9930
  175.77   97.85  102.48     0.000307       0.9966    1.0105    0.9930
  173.26  105.02  103.63     0.000114       0.9966    1.0104    0.9932
  171.51  114.84  105.77     0.000314       0.9967    1.0100    0.9934
  171.15  126.43  109.68     0.000013       0.9971    1.0094    0.9936
   -7.75   43.38   63.99     0.000771       0.9979    1.0086    0.9936
   -5.80   36.53   55.16     0.001812       0.9991    1.0074    0.9935
   -3.57   32.63   42.86     0.002644       1.0005    1.0061    0.9935
   -1.28   30.89   20.49     0.011943       1.0017    1.0049    0.9934
  178.27   91.67   96.87     0.000150       0.9963    1.0107    0.9931
  168.34  113.65   99.19     0.000373       0.9960    1.0103    0.9939
  167.61  132.75  102.77     0.000114       0.9962    1.0097    0.9942
  -10.32   31.69   69.76     0.000634       0.9971    1.0088    0.9941
   -7.32   24.04   59.54     0.001322       0.9985    1.0076    0.9940
   -4.37   20.52   46.41     0.002264       1.0001    1.0061    0.9938
   -1.58   19.10   23.28     0.013377       1.0016    1.0047    0.9937
  178.11   90.57   92.22     0.000055       0.9961    1.0108    0.9932
  174.20   91.86   92.33     0.000747       0.9960    1.0108    0.9933
  169.88   94.33   92.55     0.000957       0.9957    1.0107    0.9937
  165.19  101.97   92.88     0.000289       0.9954    1.0104    0.9943
  -16.69   34.72   84.45     0.000316       0.9955    1.0098    0.9948
  -11.79   12.61   73.46     0.000661       0.9966    1.0089    0.9945
   -7.54    8.53   61.46     0.000822       0.9981    1.0077    0.9942
   -4.32    7.11   47.88     0.002160       0.9999    1.0061    0.9940
   -1.68    6.57   24.80     0.013719       1.0015    1.0046    0.9939
 -179.99   90.50  164.16     0.000148       1.0023    1.0061    0.9916
  179.97   91.22  164.97     0.000670       1.0023    1.0061    0.9916
  179.95   91.85  166.20     0.000141       1.0024    1.0061    0.9916
  179.99   93.44  173.51     0.000164       1.0025    1.0060    0.9916
 -179.99   93.65  175.71     0.000938       1.0025    1.0060    0.9916
 -179.97   93.80  178.08     0.000156       1.0025    1.0060    0.9916
  179.89   91.18  143.37     0.000361       1.0013    1.0071    0.9917
  179.62   95.18  145.92     0.000311       1.0015    1.0069    0.9917
  179.58   96.93  148.35     0.000391       1.0016    1.0067    0.9917
  179.60   98.47  151.60     0.000009       1.0018    1.0065    0.9917
  179.74  100.75  161.09     0.000529       1.0022    1.0061    0.9917
  179.84  101.47  167.55     0.002301       1.0023    1.0060    0.9917
  179.95  101.87  175.21     0.000411       1.0024    1.0059    0.9917
  178.87  101.39  136.08     0.000221       1.0006    1.0076    0.9919
  178.88  104.10  139.63     0.000137       1.0009    1.0072    0.9919
  179.00  106.41  144.43     0.000661       1.0013    1.0068    0.9919
  179.21  108.23  150.97     0.001048       1.0017    1.0064    0.9919
  179.48  109.50  160.02     0.002586       1.0021    1.0060    0.9919
  179.80  110.19  172.26     0.000679       1.0023    1.0058    0.9919
  177.77  105.66  127.04     0.000331       0.9995    1.0084    0.9922
  177.75  109.71  130.76     0.000631       0.9999    1.0079    0.9922
  177.97  113.20  135.83     0.001335       1.0005    1.0073    0.9922
  178.38  115.97  142.86     0.001300       1.0011    1.0067    0.9922
  178.93  117.90  153.20     0.001880       1.0017    1.0061    0.9922
  179.58  118.92  169.16     0.000899       1.0022    1.0056    0.9922
  179.16   92.60  114.25     0.000033       0.9979    1.0098    0.9924
  176.16  115.28  123.30     0.000943       0.9989    1.0085    0.9926
  176.53  120.26  128.65     0.001337       0.9996    1.0078    0.9926
  177.24  124.18  136.05     0.001027       1.0004    1.0070    0.9926
  178.19  126.85  147.06     0.000950       1.0013    1.0061    0.9926
  179.31  128.22  165.88     0.000961       1.0020    1.0054    0.9926
  175.23  105.27  109.95     0.000307       0.9973    1.0100    0.9928
  174.23  112.94  112.50     0.000237       0.9975    1.0096    0.9930
  174.04  120.85  116.44     0.000624       0.9980    1.0090    0.9931
  174.64  127.85  122.15     0.000641       0.9987    1.0082    0.9931
   -4.19   46.85   49.94     0.000593       0.9997    1.0073    0.9931
   -2.70   43.43   38.39     0.000308       1.0009    1.0061    0.9930
   -1.02   41.75   17.53     0.000803       1.0019    1.0052    0.9930
  178.51   92.37  101.99     0.000164       0.9966    1.0106    0.9929
  175.78   97.92  102.53     0.000528       0.9966    1.0105    0.9930
  171.63  115.04  105.84     0.000449       0.9967    1.0100    0.9934
  171.28  126.56  109.73     0.000041       0.9971    1.0094    0.9936
   -5.83   36.57   55.28     0.000015       0.9991    1.0075    0.9935
   -1.36   30.86   20.85     0.000474       1.0017    1.0049    0.9934
  168.45  114.05   99.24     0.000190       0.9959    1.0103    0.9939
  167.74  133.02  102.82     0.000246       0.9962    1.0097    0.9941
  -10.28   31.68   69.80     0.000069       0.9971    1.0088    0.9941
   -4.50   20.52   46.66     0.000166       1.0001    1.0062    0.9938
   -1.68   19.06   23.63     0.000284       1.0016    1.0047    0.9937
  178.09   90.64   92.24     0.000010       0.9961    1.0108    0.9932
  174.20   92.00   92.35     0.001046       0.9960    1.0108    0.9933
  169.90   94.60   92.55     0.000838       0.9957    1.0107    0.9937
   -4.70    7.09   48.36     0.000197       0.9999    1.0062    0.9940
   -1.97    6.53   25.35     0.000010       1.0015    1.0046    0.9939
  179.99   90.53  164.54     0.000654       1.0023    1.0061    0.9916
  179.96   91.19  165.35     0.000143       1.0023    1.0061    0.9916
  179.99   93.08  171.18     0.000163       1.0024    1.0060    0.9916
 -180.00   93.41  173.10     0.000899       1.0024    1.0060    0.9916
 -179.98   93.68  175.30     0.000151       1.0025    1.0060    0.9916
  179.72   93.21  144.49     0.000321       1.0014    1.0070    0.9917
  179.64   95.11  146.10     0.000403       1.0015    1.0068    0.9917
  179.62   96.84  148.42     0.000049       1.0016    1.0067    0.9917
  179.64   98.37  151.54     0.000217       1.0018    1.0065    0.9917
  179.68   99.68  155.58     0.000481       1.0020    1.0063    0.9917
  179.74  100.73  160.71     0.001522       1.0022    1.0062    0.9917
  179.83  101.49  167.18     0.000317       1.0023    1.0060    0.9917
  179.05   98.32  133.64     0.000283       1.0003    1.0078    0.9919
  178.94  101.32  136.13     0.000259       1.0006    1.0076    0.9919
  178.93  104.03  139.59     0.000818       1.0009    1.0072    0.9919
  179.02  106.35  144.28     0.000833       1.0013    1.0068    0.9919
  179.20  108.20  150.71     0.000565       1.0017    1.0064    0.9919
  179.45  109.52  159.66     0.000375       1.0021    1.0060    0.9919
  178.15  101.27  124.49     0.000404       0.9992    1.0087    0.9922
  177.86  105.63  127.09     0.000840       0.9995    1.0084    0.9922
  177.82  109.66  130.73     0.001101       0.9999    1.0079    0.9922
  177.99  113.15  135.71     0.000734       1.0005    1.0074    0.9922
  178.88  117.93  152.91     0.000427       1.0017    1.0061    0.9922
  179.14   92.58  114.33     0.000070       0.9979    1.0098    0.9924
  176.91  103.76  116.84     0.000011       0.9981    1.0094    0.9925
  176.35  109.62  119.48     0.000551       0.9984    1.0091    0.9926
  176.24  115.26  123.28     0.000443       0.9989    1.0085    0.9926
  178.13  126.87  146.82     0.000399       1.0013    1.0061    0.9926
  176.89   98.57  108.51     0.000299       0.9972    1.0102    0.9927
  175.32  105.37  110.01     0.000252       0.9972    1.0100    0.9928
  174.34  113.02  112.54     0.000139       0.9975    1.0096    0.9930
   -2.79   43.41   38.62     0.000463       1.0009    1.0061    0.9930
  178.50   92.33  102.04     0.000458       0.9966    1.0106    0.9929
  175.81   97.98  102.58     0.000103       0.9966    1.0105    0.9930
   -3.78   32.62   43.30     0.000404       1.0004    1.0062    0.9935
   -1.42   30.78   21.08     0.000613       1.0017    1.0049    0.9934
  174.82   95.84   97.25     0.000210       0.9962    1.0107    0.9932
  171.41  102.40   97.91     0.000105       0.9960    1.0106    0.9935
  -10.37   31.74   69.95     0.000034       0.9971    1.0088    0.9941
   -4.67   20.49   46.91     0.000358       1.0001    1.0062    0.9938
   -1.75   18.99   23.85     0.001310       1.0016    1.0047    0.9937
  178.08   90.62   92.26     0.000080       0.9961    1.0108    0.9932
  174.21   92.14   92.36     0.000536       0.9960    1.0108    0.9933
  169.93   94.95   92.55     0.000109       0.9957    1.0107    0.9937
   -5.14    7.04   48.87     0.000039       0.9999    1.0062    0.9940
   -2.04    6.44   25.56     0.001490       1.0015    1.0046    0.9939
  179.97   89.79  164.15     0.000145       1.0023    1.0061    0.9916
 -179.88   86.98  168.34     0.000161       1.0024    1.0060    0.9916
 -179.91   86.49  170.78     0.000850       1.0024    1.0060    0.9916
 -179.95   86.16  173.56     0.000146       1.0024    1.0060    0.9916
  179.97   89.08  143.36     0.000338       1.0013    1.0071    0.9917
 -179.83   86.99  143.88     0.000403       1.0014    1.0070    0.9917
 -179.63   84.95  145.23     0.000062       1.0015    1.0069    0.9917
 -179.49   83.05  147.49     0.000355       1.0016    1.0068    0.9917
 -179.45   81.35  150.80     0.000441       1.0018    1.0066    0.9917
 -179.52   79.93  155.30     0.000782       1.0020    1.0063    0.9917
 -179.66   78.86  161.12     0.000271       1.0022    1.0061    0.9917
 -179.47   85.01  131.57     0.000388       1.0001    1.0081    0.9919
 -179.03   81.74  133.05     0.000432       1.0003    1.0079    0.9919
 -178.72   78.63  135.49     0.000764       1.0006    1.0076    0.9919
 -178.64   75.78  139.07     0.000633       1.0009    1.0073    0.9919
 -179.08   71.43  151.02     0.000402       1.0017    1.0064    0.9920
 -178.89   83.24  122.48     0.000389       0.9990    1.0090    0.9921
 -178.10   78.80  124.03     0.000702       0.9992    1.0088    0.9921
 -177.57   74.43  126.57     0.000649       0.9995    1.0084    0.9922
 -178.19   63.75  142.90     0.000440       1.0011    1.0067    0.9923
 -178.94   61.80  153.78     0.000541       1.0018    1.0060    0.9923
 -178.08   81.88  114.93     0.000063       0.9980    1.0097    0.9924
 -176.83   76.36  116.47     0.000250       0.9982    1.0095    0.9924
 -175.98   70.61  119.03     0.000058       0.9985    1.0091    0.9925
 -178.22   52.89  147.60     0.000854       1.0013    1.0061    0.9927
 -179.17   86.94  107.72     0.000065       0.9971    1.0103    0.9926
 -177.07   81.24  108.33     0.000089       0.9972    1.0102    0.9927
 -177.33   43.21  -37.87     0.000806       1.0009    1.0061    0.9931
 -179.27   41.60  163.84     0.000123       1.0019    1.0051    0.9930
 -178.77   87.14  101.99     0.000250       0.9966    1.0106    0.9929
 -176.38   32.46  -42.56     0.000444       1.0005    1.0061    0.9935
 -178.99   30.73  -19.39     0.000677       1.0017    1.0049    0.9934
 -178.41   87.92   96.90     0.000006       0.9963    1.0107    0.9931
 -174.91   83.96   97.17     0.000388       0.9962    1.0107    0.9932
 -171.30   78.00   97.79     0.000412       0.9961    1.0106    0.9934
 -175.56   20.39  -46.12     0.000165       1.0001    1.0061    0.9938
 -178.78   18.96  157.96     0.001189       1.0016    1.0047    0.9937
 -178.19   89.20   92.25     0.000200       0.9962    1.0108    0.9932
 -162.34   39.60  -85.14     0.000182       0.9955    1.0098    0.9948
 -175.40    7.02  132.22     0.000021       0.9999    1.0061    0.9941
 -178.91    6.47  156.69     0.001447       1.0015    1.0046    0.9939
 -179.88   87.52  166.69     0.000159       1.0024    1.0061    0.9916
 -179.90   86.94  168.75     0.000795       1.0024    1.0060    0.9916
 -179.94   86.52  171.20     0.000143       1.0024    1.0060    0.9916
 -179.97   89.03  143.19     0.000408       1.0013    1.0071    0.9917
 -179.75   86.91  143.83     0.000067       1.0014    1.0070    0.9917
 -179.56   84.88  145.30     0.000416       1.0015    1.0069    0.9917
 -179.47   82.98  147.69     0.000419       1.0016    1.0067    0.9917
 -179.48   81.32  151.09     0.000260       1.0018    1.0065    0.9917
 -179.57   79.95  155.61     0.000273       1.0020    1.0063    0.9917
 -179.86   88.35  130.83     0.000466       1.0001    1.0082    0.9918
 -179.35   84.99  131.53     0.000546       1.0001    1.0081    0.9919
 -178.93   81.71  133.10     0.000651       1.0003    1.0079    0.9919
 -178.70   78.58  135.63     0.000354       1.0006    1.0076    0.9919
 -178.85   73.34  144.31     0.000392       1.0013    1.0068    0.9920
 -179.16   71.49  151.21     0.000555       1.0017    1.0064    0.9920
 -179.68   87.74  121.71     0.000360       0.9989    1.0091    0.9921
 -178.75   83.28  122.44     0.000493       0.9990    1.0090    0.9921
 -177.99   78.82  124.06     0.000456       0.9992    1.0088    0.9921
 -178.31   63.78  143.06     0.000629       1.0011    1.0067    0.9923
 -179.01   61.89  153.84     0.000219       1.0018    1.0060    0.9923
 -177.94   81.99  114.90     0.000192       0.9980    1.0097    0.9924
 -177.15   55.63  136.24     0.000068       1.0004    1.0070    0.9927
 -178.30   52.97  147.65     0.000626       1.0014    1.0061    0.9926
 -179.06   87.10  107.67     0.000161       0.9971    1.0103    0.9926
 -176.93   81.45  108.31     0.000007       0.9972    1.0102    0.9927
 -177.44   43.27  -37.81     0.000486       1.0009    1.0061    0.9931
 -170.75   54.10  109.45     0.000111       0.9971    1.0094    0.9936
 -176.53   32.52  -42.47     0.000295       1.0005    1.0061    0.9935
 -178.36   88.12   96.88     0.000338       0.9963    1.0107    0.9931
 -174.84   84.28   97.17     0.000381       0.9962    1.0107    0.9932
 -171.23   78.38   97.81     0.000463       0.9961    1.0106    0.9934
 -167.12   48.35  102.50     0.000146       0.9962    1.0097    0.9942
 -175.78   20.45  -45.97     0.000116       1.0001    1.0061    0.9938
 -178.80   19.06  157.82     0.000001       1.0016    1.0047    0.9937
 -178.17   89.36   92.23     0.000189       0.9962    1.0108    0.9932
 -176.00    7.08  132.74     0.000144       0.9999    1.0061    0.9940
 -178.99    6.57  156.59     0.000088       1.0015    1.0046    0.9939
 -179.88   88.12  165.43     0.000155       1.0023    1.0061    0.9916
 -179.90   87.48  167.10     0.000744       1.0024    1.0061    0.9916
 -179.93   86.97  169.16     0.000141       1.0024    1.0060    0.9916
  180.00   86.15  178.91     0.000160       1.0025    1.0060    0.9916
 -179.89   88.96  143.14     0.000070       1.0013    1.0071    0.9917
 -179.67   86.84  143.90     0.000429       1.0014    1.0070    0.9917
 -179.54   84.81  145.49     0.000402       1.0015    1.0069    0.9917
 -179.53   81.33  151.36     0.000291       1.0018    1.0065    0.9917
 -179.63   80.01  155.83     0.000157       1.0020    1.0063    0.9917
 -179.96   78.09  176.04     0.000507       1.0024    1.0059    0.9917
 -179.75   88.32  130.79     0.000587       1.0001    1.0082    0.9918
 -179.25   84.95  131.58     0.000569       1.0001    1.0081    0.9919
 -178.90   81.65  133.23     0.000072       1.0003    1.0079    0.9919
 -178.76   75.74  139.47     0.000199       1.0009    1.0072    0.9919
 -178.94   73.38  144.46     0.000574       1.0013    1.0068    0.9920
 -179.22   71.57  151.27     0.000109       1.0017    1.0064    0.9920
 -179.86   69.78  173.09     0.001149       1.0024    1.0058    0.9919
 -179.54   87.78  121.68     0.000318       0.9989    1.0091    0.9921
 -178.63   83.30  122.48     0.000456       0.9990    1.0090    0.9921
 -177.87   66.64  135.86     0.000062       1.0005    1.0073    0.9923
 -178.39   63.85  143.10     0.000321       1.0011    1.0067    0.9923
 -179.70   61.05  170.01     0.002138       1.0022    1.0056    0.9922
 -177.81   82.09  114.93     0.000003       0.9980    1.0097    0.9924
 -176.67   76.44  116.57     0.000018       0.9981    1.0095    0.9925
 -177.26   55.68  136.29     0.000138       1.0004    1.0070    0.9926
 -178.33   53.05  147.55     0.000443       1.0014    1.0061    0.9926
 -179.47   51.77  166.74     0.003654       1.0021    1.0054    0.9926
 -178.93   87.29  107.65     0.000146       0.9971    1.0103    0.9926
 -174.49   52.12  122.19     0.000085       0.9987    1.0082    0.9931
 -175.84   46.74  -49.69     0.000034       0.9997    1.0072    0.9931
 -177.48   43.35  -37.90     0.000972       1.0009    1.0061    0.9930
 -179.19   41.76  163.36     0.005571       1.0019    1.0051    0.9930
 -173.15   75.29  103.59     0.000174       0.9966    1.0104    0.9932
 -172.15   43.43  -63.97     0.000208       0.9979    1.0085    0.9936
 -174.23   36.49  -55.00     0.000323       0.9991    1.0074    0.9936
 -176.57   32.59  -42.54     0.001533       1.0005    1.0061    0.9935
 -178.91   30.89  -19.90     0.008002       1.0017    1.0049    0.9934
 -178.30   88.35   96.87     0.000394       0.9963    1.0107    0.9931
 -174.78   84.55   97.18     0.000054       0.9962    1.0107    0.9932
 -168.17   67.03   99.16     0.000011       0.9960    1.0103    0.9939
 -169.58   31.80  -69.74     0.000060       0.9971    1.0088    0.9942
 -172.77   24.01  -59.32     0.000508       0.9985    1.0076    0.9940
 -175.85   20.51  -46.02     0.001875       1.0001    1.0061    0.9938
 -178.70   19.12  157.43     0.010560       1.0016    1.0047    0.9937
 -178.14   89.53   92.22     0.000147       0.9962    1.0108    0.9932
 -165.09   78.96   92.90     0.000106       0.9955    1.0104    0.9942
 -168.31   12.63  -73.24     0.000287       0.9966    1.0089    0.9946
 -172.85    8.51  -60.93     0.000658       0.9981    1.0076    0.9943
 -176.19    7.13  132.81     0.002033       0.9999    1.0061    0.9940
 -178.82    6.63  156.14     0.012711       1.0015    1.0046    0.9939
 -179.90   88.78  164.59     0.000152       1.0023    1.0061    0.9916
 -179.90   88.08  165.84     0.000701       1.0023    1.0061    0.9916
 -179.93   87.50  167.50     0.000140       1.0024    1.0061    0.9916
 -179.99   86.27  176.13     0.000162       1.0025    1.0060    0.9916
 -179.97   86.18  178.50     0.000959       1.0025    1.0060    0.9916
 -179.81   88.89  143.21     0.000420       1.0013    1.0071    0.9917
 -179.65   86.77  144.07     0.000384       1.0014    1.0070    0.9917
 -179.55   82.96  148.20     0.000303       1.0016    1.0067    0.9917
 -179.60   81.39  151.56     0.000326       1.0018    1.0065    0.9917
 -179.85   78.46  167.97     0.000549       1.0024    1.0060    0.9917
 -179.92   78.11  175.63     0.002815       1.0024    1.0059    0.9917
 -179.65   88.29  130.84     0.000518       1.0001    1.0082    0.9919
 -178.85   75.78  139.61     0.000329       1.0009    1.0072    0.9919
 -179.01   73.46  144.51     0.000157       1.0013    1.0068    0.9919
 -179.25   71.66  151.17     0.000175       1.0017    1.0064    0.9919
 -179.51   70.44  160.37     0.001264       1.0021    1.0060    0.9919
 -179.80   69.81  172.67     0.004569       1.0024    1.0058    0.9919
 -179.42   87.80  121.72     0.000401       0.9989    1.0091    0.9921
 -177.70   70.21  130.74     0.000104       0.9999    1.0079    0.9922
 -177.97   66.69  135.90     0.000231       1.0005    1.0073    0.9923
 -178.43   63.93  143.02     0.000898       1.0011    1.0067    0.9922
 -178.99   62.05  153.48     0.002068       1.0018    1.0060    0.9922
 -179.62   61.09  169.56     0.006236       1.0022    1.0056    0.9922
 -176.09   64.68  123.30     0.000100       0.9989    1.0085    0.9926
 -176.53   59.65  128.73     0.000539       0.9996    1.0078    0.9926
 -177.31   55.74  136.22     0.001585       1.0005    1.0070    0.9926
 -178.29   53.12  147.33     0.002735       1.0014    1.0061    0.9926
 -179.37   51.80  166.30     0.008053       1.0021    1.0054    0.9926
 -174.09   67.20  112.46     0.000066       0.9975    1.0096    0.9930
 -173.95   59.17  116.46     0.000018       0.9980    1.0090    0.9931
 -174.65   52.08  122.26     0.001002       0.9987    1.0082    0.9931
 -175.90   46.78  -49.74     0.001955       0.9997    1.0072    0.9931
 -177.43   43.41  -38.11     0.002990       1.0009    1.0061    0.9930
 -179.08   41.79  162.92     0.009874       1.0019    1.0051    0.9930
 -175.71   82.35  102.50     0.000307       0.9966    1.0105    0.9930
 -173.20   75.15  103.66     0.000114       0.9965    1.0104    0.9932
 -171.48   65.26  105.81     0.000314       0.9967    1.0100    0.9934
 -171.18   53.55  109.75     0.000013       0.9971    1.0094    0.9936
 -172.34   43.33  -63.89     0.000771       0.9979    1.0086    0.9936
 -174.30   36.51  -55.04     0.001812       0.9991    1.0074    0.9935
 -176.51   32.65  -42.75     0.002644       1.0005    1.0061    0.9935
 -178.77   30.92  -20.38     0.011943       1.0017    1.0049    0.9934
 -178.24   88.56   96.88     0.000150       0.9963    1.0107    0.9931
 -168.31   66.53   99.24     0.000373       0.9959    1.0103    0.9939
 -167.64   47.24  102.84     0.000114       0.9962    1.0097    0.9942
 -169.79   31.64  -69.62     0.000634       0.9971    1.0088    0.9941
 -172.82   24.03  -59.36     0.001322       0.9985    1.0076    0.9940
 -175.76   20.55  -46.25     0.002264       1.0001    1.0061    0.9938
 -178.51   19.15  156.89     0.013377       1.0016    1.0047    0.9937
 -178.11   89.66   92.23     0.000055       0.9961    1.0108    0.9932
 -174.20   88.43   92.35     0.000747       0.9960    1.0108    0.9933
 -169.86   86.00   92.58     0.000957       0.9957    1.0107    0.9937
 -165.16   78.47   92.92     0.000289       0.9954    1.0104    0.9943
 -163.38   34.63  -84.35     0.000316       0.9955    1.0098    0.9948
 -168.52   12.55  -73.12     0.000661       0.9966    1.0089    0.9945
 -172.80    8.54  -61.07     0.000822       0.9981    1.0077    0.9942
 -175.95    7.16  132.44     0.002160       0.9999    1.0061    0.9940
 -178.47    6.63  155.44     0.013719       1.0015    1.0046    0.9939
 -179.91   89.47  164.17     0.000148       1.0023    1.0061    0.9916
 -179.92   88.74  164.99     0.000670       1.0023    1.0061    0.9916
 -179.94   88.11  166.23     0.000141       1.0023    1.0061    0.9916
 -179.98   86.52  173.51     0.000164       1.0025    1.0060    0.9916
 -179.96   86.30  175.71     0.000938       1.0025    1.0060    0.9916
 -179.94   86.15  178.09     0.000156       1.0025    1.0060    0.9916
 -179.79   88.82  143.38     0.000361       1.0013    1.0071    0.9917
 -179.61   84.79  145.96     0.000311       1.0015    1.0069    0.9917
 -179.61   83.02  148.38     0.000391       1.0016    1.0067    0.9917
 -179.65   81.48  151.61     0.000009       1.0018    1.0065    0.9917
 -179.75   79.20  161.07     0.000529       1.0022    1.0061    0.9917
 -179.80   78.49  167.54     0.002301       1.0024    1.0060    0.9917
 -179.87   78.09  175.23     0.000411       1.0024    1.0059    0.9917
 -178.90   78.56  136.11     0.000221       1.0006    1.0075    0.9919
 -178.93   75.84  139.65     0.000137       1.0009    1.0072    0.9919
 -179.05   73.54  144.43     0.000661       1.0013    1.0068    0.9919
 -179.23   71.74  150.95     0.001048       1.0017    1.0064    0.9919
 -179.45   70.47  160.01     0.002586       1.0021    1.0060    0.9919
 -179.73   69.79  172.28     0.000679       1.0023    1.0058    0.9919
 -177.81   74.29  127.07     0.000331       0.9995    1.0084    0.9922
 -177.81   70.24  130.78     0.000631       0.9999    1.0079    0.9922
 -178.02   66.75  135.83     0.001335       1.0005    1.0073    0.9922
 -178.41   64.00  142.84     0.001300       1.0011    1.0067    0.9922
 -178.91   62.08  153.17     0.001880       1.0018    1.0061    0.9922
 -179.53   61.07  169.17     0.000899       1.0022    1.0056    0.9922
 -179.08   87.50  114.25     0.000033       0.9979    1.0098    0.9924
 -176.22   64.66  123.35     0.000943       0.9989    1.0085    0.9926
 -176.59   59.69  128.69     0.001337       0.9996    1.0078    0.9926
 -177.28   55.80  136.06     0.001027       1.0005    1.0070    0.9926
 -178.19   53.15  147.05     0.000950       1.0013    1.0061    0.9926
 -179.26   51.78  165.89     0.000961       1.0021    1.0054    0.9926
 -175.22   74.75  109.99     0.000307       0.9972    1.0100    0.9928
 -174.26   67.01  112.55     0.000237       0.9975    1.0096    0.9930
 -174.11   59.07  116.51     0.000624       0.9980    1.0090    0.9931
 -174.72   52.09  122.22     0.000641       0.9987    1.0082    0.9931
 -175.86   46.84  -49.90     0.000593       0.9997    1.0072    0.9931
 -177.31   43.45  -38.38     0.000308       1.0009    1.0061    0.9930
 -178.95   41.77  162.50     0.000803       1.0019    1.0051    0.9930
 -178.46   87.84  102.00     0.000164       0.9966    1.0106    0.9929
 -175.74   82.25  102.56     0.000528       0.9966    1.0105    0.9930
 -171.66   64.91  105.90     0.000449       0.9967    1.0100    0.9934
 -171.36   53.33  109.82     0.000041       0.9971    1.0094    0.9936
 -174.23   36.57  -55.21     0.000015       0.9991    1.0075    0.9935
 -178.61   30.90  -20.81     0.000474       1.0017    1.0049    0.9934
 -168.47   65.91   99.29     0.000190       0.9959    1.0103    0.9939
 -167.83   46.82  102.92     0.000246       0.9962    1.0097    0.9941
 -169.83   31.62  -69.67     0.000069       0.9971    1.0088    0.9941
 -175.53   20.57  -46.60     0.000166       1.0001    1.0061    0.9938
 -178.30   19.12  156.43     0.000284       1.0016    1.0047    0.9937
 -178.10   89.67   92.24     0.000010       0.9961    1.0108    0.9932
 -174.20   88.27   92.37     0.001046       0.9960    1.0108    0.9933
 -169.90   85.63   92.58     0.000838       0.9957    1.0107    0.9937
 -175.36    7.16  131.73     0.000197       0.9999    1.0062    0.9940
 -178.03    6.59  154.74     0.000010       1.0015    1.0046    0.9939
 -179.93   89.43  164.57     0.000654       1.0023    1.0061    0.9916
 -179.94   88.76  165.38     0.000143       1.0023    1.0061    0.9916
 -179.98   86.87  171.17     0.000163       1.0024    1.0060    0.9916
 -179.95   86.54  173.09     0.000899       1.0025    1.0060    0.9916
 -179.93   86.28  175.31     0.000151       1.0025    1.0060    0.9916
 -179.71   86.75  144.53     0.000321       1.0014    1.0070    0.9917
 -179.67   84.84  146.12     0.000403       1.0015    1.0068    0.9917
 -179.67   83.10  148.43     0.000049       1.0016    1.0067    0.9917
 -179.67   81.57  151.52     0.000217       1.0018    1.0065    0.9917
 -179.69   80.28  155.55     0.000481       1.0020    1.0063    0.9917
 -179.71   79.23  160.68     0.001522       1.0022    1.0061    0.9917
 -179.75   78.47  167.18     0.000317       1.0023    1.0060    0.9917
 -179.08   81.63  133.67     0.000283       1.0003    1.0078    0.9919
 -178.99   78.62  136.15     0.000259       1.0006    1.0075    0.9919
 -178.98   75.92  139.58     0.000818       1.0009    1.0072    0.9919
 -179.04   73.61  144.25     0.000833       1.0013    1.0068    0.9919
 -179.17   71.77  150.67     0.000565       1.0017    1.0064    0.9919
 -179.38   70.46  159.65     0.000375       1.0021    1.0060    0.9919
 -178.19   78.67  124.52     0.000404       0.9992    1.0087    0.9922
 -177.92   74.30  127.10     0.000840       0.9995    1.0084    0.9922
 -177.87   70.28  130.73     0.001101       0.9999    1.0079    0.9922
 -178.01   66.81  135.69     0.000734       1.0005    1.0074    0.9922
 -178.82   62.07  152.88     0.000427       1.0018    1.0061    0.9922
 -179.09   87.47  114.34     0.000070       0.9979    1.0098    0.9924
 -176.95   76.17  116.88     0.000011       0.9981    1.0094    0.9925
 -176.42   70.29  119.51     0.000551       0.9984    1.0091    0.9926
 -176.30   64.67  123.31     0.000443       0.9989    1.0085    0.9926
 -178.07   53.14  146.78     0.000399       1.0013    1.0061    0.9926
 -176.89   81.43  108.54     0.000299       0.9971    1.0102    0.9927
 -175.36   74.55  110.06     0.000252       0.9972    1.0100    0.9928
 -174.41   66.86  112.59     0.000139       0.9975    1.0096    0.9930
 -177.16   43.44  -38.64     0.000463       1.0009    1.0061    0.9930
 -178.47   87.79  102.05     0.000458       0.9966    1.0106    0.9929
 -175.81   82.04  102.61     0.000103       0.9965    1.0105    0.9930
 -176.16   32.68  -43.32     0.000404       1.0004    1.0062    0.9934
 -178.48   30.83  -21.07     0.000613       1.0017    1.0049    0.9934
 -174.83   84.22   97.28     0.000210       0.9962    1.0107    0.9932
 -171.43   77.53   97.95     0.000105       0.9960    1.0106    0.9935
 -169.67   31.74  -69.88     0.000034       0.9972    1.0088    0.9941
 -175.23   20.56  -46.96     0.000358       1.0001    1.0062    0.9938
 -178.13   19.05  156.13     0.001310       1.0016    1.0047    0.9937
 -178.09   89.55   92.27     0.000080       0.9961    1.0108    0.9932
 -174.22   87.96   92.38     0.000536       0.9960    1.0108    0.9934
 -169.94   85.05   92.58     0.000109       0.9957    1.0107    0.9937
 -174.58    7.13  130.90     0.000039       0.9999    1.0062    0.9940
 -177.77    6.51  154.35     0.001490       1.0015    1.0046    0.9939
 -179.98   89.79 -164.32     0.000145       1.0023    1.0061    0.9916
  179.97   86.96 -168.49     0.000161       1.0024    1.0060    0.9916
  179.96   86.48 -170.92     0.000850       1.0024    1.0060    0.9916
  179.96   86.16 -173.71     0.000146       1.0025    1.0060    0.9916
 -179.98   89.08 -143.47     0.000338       1.0013    1.0070    0.9917
  179.85   86.97 -144.00     0.000403       1.0014    1.0070    0.9917
  179.70   84.92 -145.35     0.000062       1.0014    1.0069    0.9917
  179.59   83.01 -147.60     0.000355       1.0016    1.0068    0.9917
  179.54   81.32 -150.88     0.000441       1.0018    1.0066    0.9917
  179.56   79.91 -155.37     0.000782       1.0020    1.0063    0.9917
  179.66   78.86 -161.21     0.000271       1.0022    1.0061    0.9917
  179.50   84.97   48.34     0.000388       1.0001    1.0081    0.9919
  179.11   81.68   46.86     0.000432       1.0003    1.0079    0.9919
  178.82   78.56   44.44     0.000764       1.0006    1.0076    0.9919
  178.72   75.72 -139.12     0.000633       1.0009    1.0072    0.9919
  179.07   71.42 -151.05     0.000402       1.0017    1.0064    0.9920
  178.93   83.17   57.46     0.000389       0.9990    1.0090    0.9921
  178.17   78.70   55.91     0.000702       0.9992    1.0088    0.9921
  177.66   74.33   53.38     0.000649       0.9995    1.0084    0.9922
  178.17   63.73   37.10     0.000440       1.0011    1.0067    0.9923
  178.89   61.80   26.20     0.000541       1.0018    1.0060    0.9923
  178.11   81.79   65.04     0.000063       0.9980    1.0097    0.9924
  176.89   76.23   63.50     0.000250       0.9981    1.0095    0.9924
  176.06   70.47   60.94     0.000058       0.9985    1.0091    0.9925
  178.14   52.90   32.44     0.000854       1.0013    1.0060    0.9926
  179.16   86.90   72.27     0.000065       0.9971    1.0103    0.9926
  177.09   81.14   71.66     0.000089       0.9972    1.0102    0.9927
  177.23   43.23 -142.02     0.000806       1.0009    1.0061    0.9931
  179.15   41.60 -163.79     0.000123       1.0019    1.0051    0.9930
  178.76   87.11   78.02     0.000250       0.9966    1.0106    0.9929
  176.24   32.49 -137.27     0.000444       1.0005    1.0061    0.9935
  178.83   30.74 -160.46     0.000677       1.0017    1.0049    0.9934
  178.39   87.89   83.13     0.000006       0.9963    1.0107    0.9931
  174.90   83.87   82.86     0.000388       0.9962    1.0107    0.9932
  171.31   77.83   82.25     0.000412       0.9961    1.0106    0.9934
  175.32   20.43 -133.60     0.000165       1.0001    1.0061    0.9938
  178.53   18.97 -157.68     0.001189       1.0016    1.0047    0.9937
  178.17   89.18   87.79     0.000200       0.9961    1.0108    0.9932
  162.37   39.22  -94.83     0.000182       0.9955    1.0098    0.9948
  174.74    7.06 -131.51     0.000021       0.9999    1.0061    0.9941
  178.22    6.48 -155.92     0.001447       1.0015    1.0046    0.9939
  179.97   87.50 -166.83     0.000159       1.0024    1.0061    0.9916
  179.95   86.93 -168.89     0.000795       1.0024    1.0060    0.9916
  179.95   86.51 -171.34     0.000143       1.0024    1.0060    0.9916
  180.00   89.01 -143.32     0.000408       1.0013    1.0071    0.9917
  179.82   86.87 -143.94     0.000067       1.0013    1.0070    0.9917
  179.66   84.83 -145.40     0.000416       1.0015    1.0069    0.9917
  179.55   82.94 -147.76     0.000419       1.0016    1.0067    0.9917
  179.52   81.29 -151.15     0.000260       1.0018    1.0065    0.9917
  179.57   79.94 -155.68     0.000273       1.0020    1.0063    0.9917
  179.90   88.31   49.09     0.000466       1.0001    1.0082    0.9919
  179.43   84.91   48.39     0.000546       1.0001    1.0081    0.9919
  179.03   81.62   46.84     0.000651       1.0003    1.0079    0.9919
  178.77   78.52   44.33     0.000354       1.0006    1.0076    0.9919
  178.84   73.33 -144.33     0.000392       1.0013    1.0068    0.9919
  179.11   71.49 -151.26     0.000555       1.0017    1.0064    0.9920
  179.71   87.67   58.23     0.000360       0.9989    1.0091    0.9921
  178.82   83.18   57.50     0.000493       0.9990    1.0090    0.9921
  178.07   78.70   55.89     0.000456       0.9992    1.0088    0.9921
  178.25   63.79   36.93     0.000629       1.0011    1.0067    0.9923
  178.94   61.89   26.11     0.000219       1.0018    1.0060    0.9923
  177.99   81.87   65.07     0.000192       0.9980    1.0097    0.9924
  177.07   55.64   43.80     0.000068       1.0004    1.0069    0.9927
  178.22   52.98   32.35     0.000626       1.0014    1.0061    0.9926
  179.08   87.00   72.33     0.000161       0.9971    1.0103    0.9926
  176.97   81.30   71.69     0.000007       0.9972    1.0102    0.9927
  177.34   43.30 -142.11     0.000486       1.0009    1.0061    0.9931
  170.74   54.05   70.60     0.000111       0.9971    1.0094    0.9936
  176.39   32.55 -137.40     0.000295       1.0005    1.0061    0.9935
  178.35   88.05   83.16     0.000338       0.9963    1.0107    0.9931
  174.84   84.15   82.87     0.000381       0.9962    1.0107    0.9932
  171.24   78.17   82.23     0.000463       0.9961    1.0106    0.9934
  167.10   48.32   77.57     0.000146       0.9962    1.0097    0.9942
  175.57   20.48 -133.81     0.000116       1.0001    1.0061    0.9938
  178.63   19.07 -157.64     0.000001       1.0016    1.0047    0.9937
  178.15   89.32   87.81     0.000189       0.9962    1.0108    0.9932
  175.48    7.10 -132.21     0.000144       0.9999    1.0061    0.9941
  178.57    6.57 -156.12     0.000088       1.0015    1.0046    0.9939
  179.98   88.11 -165.57     0.000155       1.0023    1.0061    0.9916
  179.95   87.47 -167.23     0.000744       1.0024    1.0061    0.9916
  179.94   86.96 -169.30     0.000141       1.0024    1.0060    0.9916
 -179.99   86.15 -179.08     0.000160       1.0025    1.0060    0.9916
  179.96   88.92 -143.26     0.000070       1.0013    1.0071    0.9917
  179.78   86.79 -143.99     0.000429       1.0014    1.0070    0.9917
  179.62   84.77 -145.55     0.000402       1.0015    1.0069    0.9917
  179.53   81.32 -151.42     0.000291       1.0018    1.0065    0.9917
  179.60   80.01 -155.91     0.000157       1.0020    1.0063    0.9917
  179.97   78.09 -176.19     0.000507       1.0024    1.0059    0.9917
  179.83   88.25   49.13     0.000587       1.0001    1.0082    0.9919
  179.35   84.87   48.36     0.000569       1.0001    1.0081    0.9919
  178.97   81.59   46.73     0.000072       1.0003    1.0079    0.9919
  178.74   75.73 -139.50     0.000199       1.0009    1.0072    0.9919
  178.89   73.39 -144.50     0.000574       1.0013    1.0068    0.9919
  179.17   71.58 -151.34     0.000109       1.0017    1.0064    0.9920
  179.87   69.78 -173.22     0.001149       1.0023    1.0058    0.9919
  179.61   87.68   58.27     0.000318       0.9989    1.0091    0.9921
  178.71   83.19   57.48     0.000456       0.9990    1.0090    0.9921
  177.81   66.65   44.13     0.000062       1.0005    1.0073    0.9923
  178.33   63.86   36.86     0.000321       1.0011    1.0067    0.9923
  179.70   61.05 -170.13     0.002138       1.0022    1.0056    0.9922
  177.88   81.94   65.06     0.000003       0.9980    1.0097    0.9924
  176.71   76.33   63.42     0.000018       0.9981    1.0095    0.9925
  177.18   55.69   43.72     0.000138       1.0004    1.0070    0.9927
  178.28   53.06   32.41     0.000443       1.0014    1.0061    0.9926
  179.47   51.77 -166.82     0.003654       1.0021    1.0054    0.9926
  178.97   87.15   72.35     0.000146       0.9971    1.0103    0.9926
  174.41   52.16   57.87     0.000085       0.9987    1.0082    0.9931
  175.75   46.77 -130.25     0.000034       0.9997    1.0072    0.9931
  177.42   43.36 -142.08     0.000972       1.0009    1.0061    0.9931
  179.19   41.76 -163.41     0.005571       1.0019    1.0051    0.9930
  173.17   75.14   76.44     0.000174       0.9966    1.0104    0.9932
  172.05   43.51 -115.92     0.000208       0.9979    1.0085    0.9936
  174.12   36.53 -124.89     0.000323       0.9991    1.0074    0.9936
  176.50   32.61 -137.40     0.001533       1.0005    1.0061    0.9935
  178.91   30.89 -160.12     0.008002       1.0017    1.0049    0.9934
  178.29   88.25   83.17     0.000394       0.9963    1.0107    0.9931
  174.78   84.39   82.86     0.000054       0.9962    1.0107    0.9932
  168.16   66.96   80.89     0.000011       0.9960    1.0102    0.9939
  169.44   31.92 -110.11     0.000060       0.9971    1.0088    0.9942
  172.63   24.06 -120.53     0.000508       0.9985    1.0076    0.9940
  175.77   20.52 -133.90     0.001875       1.0001    1.0061    0.9938
  178.70   19.12 -157.43     0.010560       1.0016    1.0047    0.9937
  178.12   89.47   87.82     0.000147       0.9962    1.0108    0.9932
  165.10   78.83   87.14     0.000106       0.9955    1.0104    0.9942
  168.03   12.74 -106.45     0.000287       0.9966    1.0089    0.9946
  172.60    8.53 -118.80     0.000658       0.9981    1.0076    0.9943
  176.07    7.12 -132.68     0.002033       0.9999    1.0061    0.9940
  178.88    6.62 -156.16     0.012711       1.0015    1.0046    0.9939
  179.99   88.77 -164.73     0.000152       1.0023    1.0061    0.9916
  179.95   88.08 -165.97     0.000701       1.0024    1.0061    0.9916
  179.94   87.50 -167.63     0.000140       1.0024    1.0061    0.9916
 -180.00   86.27 -176.30     0.000162       1.0025    1.0060    0.9916
 -179.97   86.18 -178.66     0.000959       1.0025    1.0060    0.9916
  179.92   88.83 -143.30     0.000420       1.0013    1.0071    0.9917
  179.73   86.73 -144.14     0.000384       1.0014    1.0070    0.9917
  179.54   82.95 -148.26     0.000303       1.0016    1.0067    0.9917
  179.56   81.39 -151.63     0.000326       1.0018    1.0065    0.9917
  179.86   78.46 -168.13     0.000549       1.0023    1.0060    0.9917
  179.98   78.11 -175.78     0.002815       1.0024    1.0059    0.9917
  179.74   88.21   49.11     0.000518       1.0001    1.0082    0.9919
  178.80   75.78 -139.65     0.000329       1.0009    1.0072    0.9919
  178.96   73.47 -144.58     0.000157       1.0013    1.0068    0.9919
  179.22   71.66 -151.28     0.000175       1.0017    1.0064    0.9919
  179.53   70.43 -160.51     0.001264       1.0021    1.0060    0.9919
  179.86   69.80 -172.81     0.004569       1.0023    1.0058    0.9919
  179.50   87.69   58.25     0.000401       0.9989    1.0091    0.9921
  177.64   70.22   49.24     0.000104       0.9999    1.0079    0.9922
  177.91   66.70   44.06     0.000231       1.0005    1.0073    0.9923
  178.39   63.93   36.90     0.000898       1.0011    1.0067    0.9923
  179.00   62.04   26.40     0.002068       1.0018    1.0060    0.9922
  179.68   61.09 -169.69     0.006236       1.0022    1.0056    0.9922
  176.02   64.71   56.71     0.000100       0.9989    1.0085    0.9926
  176.46   59.67   51.27     0.000539       0.9996    1.0078    0.9926
  177.27   55.74   43.75     0.001585       1.0004    1.0070    0.9926
  178.30   53.11   32.59     0.002735       1.0013    1.0061    0.9926
  179.45   51.79 -166.41     0.008053       1.0021    1.0054    0.9926
  174.04   67.22   67.58     0.000066       0.9975    1.0096    0.9930
  173.88   59.22   63.58     0.000018       0.9980    1.0090    0.9931
  174.57   52.12   57.78     0.001002       0.9987    1.0082    0.9931
  175.86   46.79 -130.25     0.001955       0.9997    1.0072    0.9931
  177.45   43.40 -141.93     0.002990       1.0009    1.0061    0.9930
  179.17   41.78 -163.01     0.009874       1.0019    1.0051    0.9930
  175.71   82.25   77.53     0.000307       0.9966    1.0105    0.9930
  173.18   75.11   76.38     0.000114       0.9966    1.0104    0.9932
  171.43   65.30   74.24     0.000314       0.9967    1.0100    0.9934
  171.10   53.64   70.31     0.000013       0.9971    1.0094    0.9936
  172.26   43.38 -116.05     0.000771       0.9979    1.0085    0.9936
  174.27   36.52 -124.93     0.001812       0.9991    1.0074    0.9936
  176.55   32.63 -137.29     0.002644       1.0005    1.0061    0.9935
  178.89   30.91 -159.73     0.011943       1.0017    1.0049    0.9934
  178.24   88.44   83.16     0.000150       0.9963    1.0107    0.9931
  168.26   66.63   80.82     0.000373       0.9959    1.0102    0.9939
  167.56   47.40   77.24     0.000114       0.9962    1.0097    0.9942
  169.72   31.69 -110.30     0.000634       0.9971    1.0088    0.9942
  172.82   24.02 -120.62     0.001322       0.9985    1.0076    0.9940
  175.86   20.53 -133.84     0.002264       1.0001    1.0061    0.9938
  178.71   19.13 -157.06     0.013377       1.0016    1.0047    0.9937
  178.10   89.61   87.82     0.000055       0.9961    1.0108    0.9932
  174.18   88.36   87.69     0.000747       0.9960    1.0108    0.9933
  169.85   85.98   87.46     0.000957       0.9957    1.0107    0.9937
  165.14   78.62   87.12     0.000289       0.9954    1.0104    0.9943
  163.27   35.05  -95.54     0.000316       0.9955    1.0098    0.9948
  168.50   12.50 -106.84     0.000661       0.9966    1.0089    0.9946
  172.97    8.48 -119.08     0.000822       0.9981    1.0077    0.9943
  176.34    7.11 -132.80     0.002160       0.9999    1.0061    0.9940
  179.07    6.61 -155.98     0.013719       1.0015    1.0046    0.9939
 -180.00   89.45 -164.31     0.000148       1.0023    1.0061    0.9916
  179.97   88.73 -165.12     0.000670       1.0023    1.0061    0.9916
  179.94   88.10 -166.36     0.000141       1.0024    1.0061    0.9916
  180.00   86.51 -173.68     0.000164       1.0025    1.0060    0.9916
 -179.98   86.30 -175.88     0.000938       1.0025    1.0060    0.9916
 -179.96   86.15 -178.25     0.000156       1.0025    1.0060    0.9916
  179.87   88.78 -143.45     0.000361       1.0013    1.0070    0.9917
  179.60   84.78 -146.01     0.000311       1.0015    1.0069    0.9917
  179.58   83.02 -148.45     0.000391       1.0016    1.0067    0.9917
  179.61   81.48 -151.71     0.000009       1.0018    1.0065    0.9917
  179.76   79.20 -161.23     0.000529       1.0022    1.0061    0.9917
  179.86   78.48 -167.70     0.002301       1.0023    1.0060    0.9917
  179.97   78.09 -175.38     0.000411       1.0024    1.0059    0.9917
  178.86   78.57   43.85     0.000221       1.0006    1.0075    0.9919
  178.88   75.85 -139.71     0.000137       1.0009    1.0072    0.9919
  179.02   73.54 -144.52     0.000661       1.0013    1.0068    0.9919
  179.24   71.72 -151.08     0.001048       1.0017    1.0064    0.9919
  179.52   70.45 -160.15     0.002586       1.0021    1.0060    0.9919
  179.83   69.78 -172.41     0.000679       1.0023    1.0058    0.9919
  177.75   74.30   52.91     0.000331       0.9995    1.0084    0.9922
  177.75   70.25   49.18     0.000631       0.9999    1.0079    0.9922
  178.00   66.75   44.10     0.001335       1.0005    1.0073    0.9922
  178.43   63.98   37.06     0.001300       1.0011    1.0067    0.9922
  178.99   62.06   26.70     0.001880       1.0018    1.0061    0.9922
  179.64   61.06 -169.29     0.000899       1.0022    1.0056    0.9922
  179.11   87.42   65.74     0.000033       0.9979    1.0098    0.9924
  176.17   64.68   56.65     0.000943       0.9989    1.0085    0.9926
  176.57   59.68   51.28     0.001337       0.9996    1.0078    0.9926
  177.31   55.77   43.87     0.001027       1.0004    1.0070    0.9926
  178.29   53.12   32.84     0.000950       1.0013    1.0061    0.9926
  179.38   51.77 -166.00     0.000961       1.0021    1.0054    0.9926
  175.17   74.77   70.03     0.000307       0.9972    1.0100    0.9928
  174.20   67.06   67.48     0.000237       0.9975    1.0096    0.9930
  174.05   59.10   63.51     0.000624       0.9980    1.0090    0.9931
  174.70   52.08   57.77     0.000641       0.9987    1.0082    0.9931
  175.91   46.80 -130.15     0.000593       0.9997    1.0072    0.9931
  177.43   43.41 -141.71     0.000308       1.0009    1.0061    0.9930
  179.09   41.76 -162.60     0.000803       1.0019    1.0051    0.9930
  178.45   87.78   78.03     0.000164       0.9966    1.0106    0.9929
  175.71   82.24   77.48     0.000528       0.9966    1.0105    0.9930
  171.60   65.00   74.15     0.000449       0.9966    1.0100    0.9934
  171.30   53.39   70.22     0.000041       0.9971    1.0094    0.9936
  174.31   36.51 -124.85     0.000015       0.9991    1.0074    0.9935
  178.81   30.88 -159.32     0.000474       1.0017    1.0049    0.9934
  168.41   66.09   80.75     0.000190       0.9959    1.0103    0.9939
  167.78   46.90   77.13     0.000246       0.9962    1.0097    0.9942
  169.87   31.55 -110.34     0.000069       0.9971    1.0088    0.9941
  175.81   20.50 -133.64     0.000166       1.0001    1.0061    0.9938
  178.63   19.09 -156.68     0.000284       1.0016    1.0047    0.9937
  178.07   89.67   87.80     0.000010       0.9961    1.0108    0.9932
  174.18   88.32   87.67     0.001046       0.9960    1.0108    0.9933
  169.88   85.78   87.45     0.000838       0.9957    1.0107    0.9937
  176.20    7.07 -132.53     0.000197       0.9999    1.0062    0.9940
  179.09    6.56 -155.70     0.000010       1.0015    1.0046    0.9939
  179.98   89.42 -164.69     0.000654       1.0023    1.0061    0.9916
  179.95   88.76 -165.50     0.000143       1.0023    1.0061    0.9916
  179.99   86.87 -171.35     0.000163       1.0024    1.0060    0.9916
 -179.99   86.54 -173.27     0.000899       1.0025    1.0060    0.9916
 -179.97   86.27 -175.47     0.000151       1.0025    1.0060    0.9916
  179.71   86.74 -144.58     0.000321       1.0014    1.0070    0.9917
  179.64   84.85 -146.19     0.000403       1.0015    1.0068    0.9917
  179.63   83.11 -148.52     0.000049       1.0016    1.0067    0.9917
  179.65   81.57 -151.65     0.000217       1.0018    1.0065    0.9917
  179.71   80.27 -155.70     0.000481       1.0020    1.0063    0.9917
  179.77   79.22 -160.84     0.001522       1.0022    1.0061    0.9917
  179.85   78.46 -167.32     0.000317       1.0023    1.0060    0.9917
  179.04   81.64   46.29     0.000283       1.0003    1.0078    0.9919
  178.94   78.62   43.79     0.000259       1.0006    1.0075    0.9919
  178.96   75.91 -139.67     0.000818       1.0009    1.0072    0.9919
  179.06   73.59 -144.37     0.000833       1.0013    1.0068    0.9919
  179.25   71.74 -150.80     0.000565       1.0017    1.0064    0.9919
  179.48   70.44 -159.77     0.000375       1.0021    1.0060    0.9919
  178.14   78.68   55.46     0.000404       0.9992    1.0087    0.9922
  177.87   74.31   52.85     0.000840       0.9995    1.0084    0.9922
  177.85   70.27   49.20     0.001101       0.9999    1.0079    0.9922
  178.04   66.78   44.21     0.000734       1.0005    1.0074    0.9922
  178.93   62.04   27.02     0.000427       1.0018    1.0061    0.9922
  179.08   87.45   65.65     0.000070       0.9979    1.0098    0.9924
  176.90   76.20   63.12     0.000011       0.9981    1.0094    0.9925
  176.37   70.31   60.47     0.000551       0.9984    1.0091    0.9926
  176.29   64.65   56.65     0.000443       0.9989    1.0085    0.9926
  178.19   53.10   33.13     0.000399       1.0013    1.0061    0.9926
  176.84   81.46   71.47     0.000299       0.9971    1.0102    0.9927
  175.30   74.61   69.96     0.000252       0.9972    1.0100    0.9928
  174.36   66.89   67.42     0.000139       0.9975    1.0096    0.9930
  177.30   43.39 -141.43     0.000463       1.0009    1.0061    0.9930
  178.44   87.81   77.97     0.000458       0.9966    1.0106    0.9929
  175.76   82.11   77.42     0.000103       0.9965    1.0105    0.9930
  176.35   32.61 -136.78     0.000404       1.0004    1.0061    0.9934
  178.67   30.80 -159.00     0.000613       1.0017    1.0049    0.9934
  174.78   84.33   82.76     0.000210       0.9962    1.0107    0.9932
  171.38   77.69   82.09     0.000105       0.9960    1.0106    0.9935
  169.83   31.54 -110.22     0.000034       0.9971    1.0088    0.9941
  175.54   20.48 -133.26     0.000358       1.0001    1.0062    0.9938
  178.43   19.02 -156.29     0.001310       1.0016    1.0047    0.9937
  178.07   89.60   87.77     0.000080       0.9961    1.0108    0.9932
  174.19   88.09   87.65     0.000536       0.9960    1.0108    0.9934
  169.92   85.30   87.45     0.000109       0.9957    1.0107    0.9937
  175.48    7.04 -131.72     0.000039       0.9999    1.0062    0.9940
  178.59    6.49 -155.03     0.001490       1.0015    1.0046    0.9939
