MORPHOLOGY AT STRAIN =    1.0000  FOR PHASE  1
   0.605   2.692   0.605  <-- AXES OF PHASE ELLIPSOID
  158.95   90.00  180.00  <-- EULER ANGLES OF PHASE ELLIPSOID (deg)
   0.780   2.895   0.475  <-- AVERAGE OF GRAIN AXES FOR PHASE
   0.186   0.282   0.240  <-- STANDARD DEV OF AVG GRAIN AXES FOR PHASE
B       500
  140.98   89.22 -165.87     0.002000       0.8398    1.8090    0.6548
  147.32   88.45  168.77     0.002000       0.9088    2.7006    0.4003
   77.32   89.92   -9.46     0.002000       0.8923    2.9363    0.3739
  118.40   88.86    8.57     0.002000       0.9031    2.9614    0.3657
   79.96   90.26    0.04     0.002000       0.5505    3.9884    0.4421
  171.19   90.76  179.31     0.002000       0.5133    3.7749    0.5024
   44.04   88.59  -10.03     0.002000       0.9089    2.8178    0.3829
  127.37   89.76   -1.34     0.002000       0.6125    4.0034    0.3954
  121.22   95.29   -6.64     0.002000       0.8549    1.5113    0.7718
 -166.28   93.94 -166.83     0.002000       0.8528    1.9574    0.5949
   63.97   89.39   -1.28     0.002000       0.5937    3.9402    0.4150
  146.00   90.12 -179.01     0.002000       0.5210    3.7798    0.4942
 -154.75   95.97  168.31     0.002000       0.8587    1.8274    0.6336
  165.11   90.59 -170.35     0.002000       0.8982    2.9197    0.3736
 -167.57   90.72 -169.43     0.002000       0.9009    2.8077    0.3879
  166.64   90.24  178.90     0.002000       0.5276    3.9561    0.4653
 -150.40   90.24  178.51     0.002000       0.5456    3.8818    0.4590
 -142.71   89.06  173.67     0.002000       0.8651    3.3082    0.3404
 -141.75   87.99  166.62     0.002000       0.8727    2.2470    0.5045
 -157.22   89.04  176.85     0.002000       0.7444    3.7559    0.3471
  179.40   88.35  166.78     0.002000       0.8862    2.3893    0.4663
   89.16   90.98   -7.22     0.002000       0.8800    3.1843    0.3481
 -174.67   90.11 -179.10     0.002000       0.5117    3.9557    0.4799
   89.79   90.12  -10.10     0.002000       0.8962    2.8647    0.3820
  156.82   89.01  177.79     0.002000       0.7021    3.8737    0.3565
  143.09   91.51 -168.85     0.002000       0.9085    2.6878    0.4024
  132.85   89.97    0.95     0.002000       0.5176    3.7735    0.4984
 -138.07   89.19 -173.37     0.002000       0.8706    3.2561    0.3437
   97.98   89.98   -1.24     0.002000       0.5287    3.8259    0.4809
   86.53   98.55    5.51     0.002000       0.8792    1.6776    0.6749
  153.72   89.26  177.65     0.002000       0.6698    3.8492    0.3766
   97.69   94.96   12.21     0.002000       0.8477    1.7717    0.6625
 -139.21   86.85 -166.90     0.002000       0.8626    2.1148    0.5433
  137.49   89.81 -174.36     0.002000       0.8257    3.3995    0.3470
   54.13   93.10  -13.35     0.002000       0.8403    1.8270    0.6478
   70.50   91.69  -13.23     0.002000       0.8750    2.2847    0.4946
  110.97   89.19  -13.47     0.002000       0.8780    2.3328    0.4825
 -170.58   90.81 -175.54     0.002000       0.8111    3.5631    0.3360
   92.55   89.14   -7.34     0.002000       0.8763    3.1598    0.3526
  105.80   90.05    0.65     0.002000       0.5485    3.9823    0.4444
  164.39   81.69 -176.59     0.002000       0.9038    1.8180    0.6047
 -160.30   90.78 -179.19     0.002000       0.5110    3.8875    0.4894
  119.55   90.28    5.54     0.002000       0.8225    3.4053    0.3478
 -140.94   93.73  169.60     0.002000       0.8483    1.5742    0.7464
 -149.28   91.26  169.31     0.002000       0.9071    2.7849    0.3884
 -151.68   90.21 -177.82     0.002000       0.8010    3.7523    0.3223
 -159.05   93.86 -173.66     0.002000       0.9168    2.2661    0.4751
  119.17   84.13    8.63     0.002000       0.8882    2.0468    0.5451
   74.05   84.90   -5.86     0.002000       0.9119    2.1288    0.5096
 -172.52   91.48  170.35     0.002000       0.9155    2.7273    0.3930
  179.76   90.81  175.56     0.002000       0.7996    3.5553    0.3420
   91.26   89.00    1.92     0.002000       0.6526    3.8687    0.3846
 -144.18   81.15 -179.88     0.002000       0.8783    1.5766    0.7196
   80.88   89.58    2.91     0.002000       0.6709    3.7798    0.3833
   50.22   88.09    3.18     0.002000       0.8440    1.4425    0.8194
 -138.46   88.95  170.87     0.002000       0.9008    2.9652    0.3664
  119.34   89.38   11.58     0.002000       0.8988    2.6878    0.4069
   80.36   85.52    9.34     0.002000       0.8907    2.1849    0.5083
  169.66   90.45 -179.44     0.002000       0.5184    3.7472    0.5013
 -135.24   89.98 -178.44     0.002000       0.5740    3.9232    0.4313
   51.90   90.21    1.20     0.002000       0.5246    3.8198    0.4855
  126.73   89.49   11.19     0.002000       0.8993    2.7423    0.3983
   80.11   98.22    4.22     0.002000       0.8952    1.8018    0.6162
   49.13   89.37   -1.04     0.002000       0.5232    3.8757    0.4795
  127.85   97.33    0.02     0.002000       0.9175    1.9145    0.5648
  146.90   85.83 -169.83     0.002000       0.8524    1.5737    0.7430
  107.20   89.14  -10.70     0.002000       0.9018    2.7877    0.3904
   86.84   86.63    5.24     0.002000       0.8470    1.4685    0.8019
  165.05   89.24  173.91     0.002000       0.8571    3.3503    0.3389
 -163.10   88.47 -165.85     0.002000       0.8495    2.0226    0.5776
  170.56   90.78  172.95     0.002000       0.8744    3.2164    0.3469
  125.38   90.09    0.54     0.002000       0.5591    3.9893    0.4352
 -162.40   90.31 -179.19     0.002000       0.5715    3.9796    0.4268
 -146.47   89.29 -175.70     0.002000       0.8035    3.5821    0.3374
  136.12   89.57 -179.95     0.002000       0.5681    4.0068    0.4262
 -176.08   89.51  178.73     0.002000       0.5320    3.8641    0.4730
   93.00   88.76   -9.35     0.002000       0.9040    2.9248    0.3703
   71.74   89.11  -13.98     0.002000       0.8442    1.9957    0.5893
 -165.71   90.94  178.03     0.002000       0.6739    3.8905    0.3700
   94.58   89.94  -12.25     0.002000       0.8941    2.5863    0.4258
 -137.11   91.08  171.45     0.002000       0.8981    3.0297    0.3593
  154.82   89.93  178.33     0.002000       0.5962    3.9751    0.4094
   52.87   89.04   -5.11     0.002000       0.8277    3.4367    0.3421
  175.44   90.47  174.12     0.002000       0.8383    3.3742    0.3444
  167.77   90.33  179.41     0.002000       0.5162    3.7350    0.5051
  101.54   90.78    2.70     0.002000       0.6920    3.7846    0.3709
 -159.36   87.99  170.97     0.002000       0.9167    2.5796    0.4157
   54.14   89.93   -1.55     0.002000       0.5748    3.9220    0.4308
  158.54   91.26 -165.82     0.002000       0.8412    1.8182    0.6504
  172.40   93.79  167.47     0.002000       0.8725    2.1402    0.5304
   70.54   90.64   -0.27     0.002000       0.6617    4.0170    0.3643
  173.34   89.08 -176.73     0.002000       0.7542    3.7034    0.3477
  144.64   90.03 -179.74     0.002000       0.5290    3.9992    0.4588
  132.92   94.82  -11.62     0.002000       0.8494    1.6737    0.7005
 -152.16   90.68 -179.08     0.002000       0.5205    3.8256    0.4885
   97.38   89.62   11.19     0.002000       0.8986    2.7341    0.3998
 -154.81   86.28  166.73     0.002000       0.8543    1.9982    0.5815
 -140.33   91.02  170.95     0.002000       0.9002    2.9758    0.3653
  126.58   92.67   13.95     0.002000       0.8468    1.9397    0.6047
 -151.87   89.33  179.46     0.002000       0.5871    3.9823    0.4150
   93.80   84.33  -11.75     0.002000       0.8564    1.8670    0.6216
  152.71   91.08 -179.71     0.002000       0.5078    3.8279    0.5005
   88.96   93.81   13.04     0.002000       0.8515    1.9765    0.5899
   71.69   94.01   12.09     0.002000       0.8664    2.1059    0.5431
  150.20   89.99  179.14     0.002000       0.5177    3.7488    0.5017
  150.51   90.86 -172.53     0.002000       0.9069    2.9373    0.3670
  142.06   89.36  179.45     0.002000       0.6201    4.0305    0.3878
   42.40   92.52    6.35     0.002000       0.8469    1.4759    0.7979
  146.01   91.90 -165.98     0.002000       0.8418    1.8081    0.6536
 -166.55   90.94 -174.05     0.002000       0.8579    3.3254    0.3415
  102.58   91.24   11.06     0.002000       0.9051    2.7196    0.3990
 -159.83   91.09 -168.26     0.002000       0.9001    2.6438    0.4133
  110.28   83.51   -6.12     0.002000       0.8614    1.5195    0.7617
 -175.54   90.43 -166.12     0.002000       0.8683    2.2350    0.5100
   70.03   89.64   -3.36     0.002000       0.6985    3.7250    0.3737
   68.65   81.43   -2.44     0.002000       0.8728    1.5589    0.7325
 -139.01   90.30  165.93     0.002000       0.8570    2.1301    0.5429
 -157.53   92.30  166.07     0.002000       0.8563    2.0728    0.5588
   79.88   90.91   -7.95     0.002000       0.8874    3.0836    0.3571
  108.45   90.67   -4.27     0.002000       0.7934    3.5784    0.3421
  126.77   89.76    0.30     0.002000       0.5488    3.9927    0.4430
  124.32   90.32   -0.86     0.002000       0.5158    3.7643    0.5014
  139.90   90.70  177.45     0.002000       0.7371    3.8268    0.3436
  128.42   86.87   13.41     0.002000       0.8423    1.7908    0.6596
  118.29   90.65    8.85     0.002000       0.8932    2.9982    0.3654
 -174.64   88.30  170.92     0.002000       0.9181    2.6638    0.4014
  155.78   90.60  179.93     0.002000       0.5147    3.7363    0.5064
   90.47   94.78   12.02     0.002000       0.8456    1.7307    0.6802
   72.85   86.02    2.10     0.002000       0.8477    1.4493    0.8119
   68.11   90.09    1.15     0.002000       0.5987    4.0017    0.4048
  104.22   90.28    1.24     0.002000       0.5407    3.9175    0.4587
   87.28   88.66   -9.76     0.002000       0.9075    2.8576    0.3779
 -163.20   90.19  179.01     0.002000       0.5189    3.9680    0.4717
 -150.04   96.31 -174.15     0.002000       0.9038    2.0138    0.5445
   75.13   94.22  -10.45     0.002000       0.8823    2.1794    0.5146
   55.46   89.23   14.10     0.002000       0.8476    2.0336    0.5757
  176.91   89.40  179.93     0.002000       0.6633    4.0485    0.3605
 -162.35   88.92  171.69     0.002000       0.8964    3.0687    0.3552
   84.44   90.23    0.16     0.002000       0.5489    3.9906    0.4431
  169.36   92.56 -166.99     0.002000       0.8792    2.2694    0.4956
 -138.53   90.87 -169.77     0.002000       0.9013    2.8352    0.3838
 -147.71   85.28  172.23     0.002000       0.9002    2.1719    0.5058
   95.39   89.96   -1.40     0.002000       0.6504    4.0181    0.3707
  177.01   90.79 -174.02     0.002000       0.8542    3.3254    0.3430
  148.28   89.30  178.46     0.002000       0.6256    3.9319    0.3946
  166.11   95.08 -167.71     0.002000       0.8613    1.9485    0.5917
   95.31   92.48   12.60     0.002000       0.8820    2.3084    0.4854
   96.76   89.89   -1.65     0.002000       0.5951    3.9522    0.4126
  164.04   90.15  179.76     0.002000       0.5178    3.7178    0.5059
   71.61   84.46   11.14     0.002000       0.8655    1.9795    0.5793
  139.23   81.99  171.86     0.002000       0.8741    1.6704    0.6819
  128.41   80.85    1.65     0.002000       0.8851    1.6121    0.6981
 -163.09   89.31  174.70     0.002000       0.8240    3.4386    0.3436
   95.83   90.82   11.21     0.002000       0.9011    2.7183    0.4011
  104.34   90.74    0.69     0.002000       0.6098    3.9729    0.4004
 -163.68   91.00  172.30     0.002000       0.8896    3.1391    0.3496
  156.33   95.42 -171.37     0.002000       0.8938    2.0886    0.5305
  133.02   89.17   -7.83     0.002000       0.8856    3.1179    0.3538
  157.41   89.48 -178.87     0.002000       0.5305    3.8871    0.4714
  163.85   89.38 -179.59     0.002000       0.6906    4.0230    0.3483
  160.21   91.73 -168.17     0.002000       0.9036    2.5794    0.4223
   53.14   90.56    4.42     0.002000       0.8177    3.4611    0.3434
   93.36   87.85  -13.02     0.002000       0.8789    2.2977    0.4895
  119.97   94.54    9.29     0.002000       0.8535    1.5537    0.7517
  119.28   89.11  -12.91     0.002000       0.8897    2.4746    0.4479
   50.65   98.34    1.46     0.002000       0.8710    1.5443    0.7410
   57.67   90.06   10.99     0.002000       0.8983    2.7685    0.3948
  163.50   89.51  178.81     0.002000       0.5180    3.9135    0.4794
  144.64   89.46 -179.56     0.002000       0.5151    3.7432    0.5050
  157.02   91.00  165.99     0.002000       0.8690    2.2211    0.5128
  109.89   89.02   11.49     0.002000       0.9009    2.6831    0.4067
 -146.33   89.40 -177.79     0.002000       0.6567    3.8529    0.3838
   97.53   89.99    1.50     0.002000       0.6429    4.0085    0.3760
   69.04   89.44   -0.19     0.002000       0.6623    4.0284    0.3629
  161.78   96.73 -179.62     0.002000       0.9241    1.9722    0.5438
  109.46   91.15   -8.98     0.002000       0.9033    2.9517    0.3670
  170.01   98.76 -175.27     0.002000       0.8862    1.6725    0.6717
   70.44   91.22   -9.53     0.002000       0.9060    2.8884    0.3743
   99.35   89.00  -10.91     0.002000       0.9025    2.7543    0.3950
 -142.83   89.21  179.75     0.002000       0.6191    4.0065    0.3908
   65.87   95.36    3.49     0.002000       0.9238    2.0912    0.5121
  121.29   90.50   -1.12     0.002000       0.5262    3.8411    0.4813
   90.90   91.30  -11.51     0.002000       0.9028    2.6528    0.4106
  102.99   92.64   10.91     0.002000       0.8444    1.5871    0.7438
  160.38   89.83 -165.67     0.002000       0.8545    2.0813    0.5577
   58.78   96.17    5.60     0.002000       0.9047    2.0224    0.5415
  128.42   90.37   11.88     0.002000       0.8973    2.6543    0.4130
  178.48   89.62 -170.07     0.002000       0.8975    2.8930    0.3775
   53.25   88.73  -10.28     0.002000       0.9058    2.8117    0.3852
  108.44   89.24    4.04     0.002000       0.7621    3.6043    0.3540
  168.45   91.18 -168.74     0.002000       0.9041    2.7127    0.4006
   80.01   97.31   -2.21     0.002000       0.8632    1.5072    0.7664
 -147.27   82.63 -170.97     0.002000       0.8734    1.8041    0.6310
  118.88   90.04   -0.99     0.002000       0.5158    3.7719    0.5003
  154.64   90.87 -175.39     0.002000       0.8239    3.5200    0.3351
  162.94   89.92  178.26     0.002000       0.5794    3.9278    0.4267
   54.50   90.09   -1.21     0.002000       0.6004    3.9944    0.4044
  141.52   89.60 -178.77     0.002000       0.5385    3.8553    0.4684
  166.14   88.73  169.11     0.002000       0.9068    2.7747    0.3901
 -167.83   94.20 -170.48     0.002000       0.8934    2.2188    0.4987
  166.32   90.91  177.16     0.002000       0.7342    3.8067    0.3470
   78.41   82.31    5.83     0.002000       0.8642    1.5632    0.7378
  176.92   86.70 -167.14     0.002000       0.8722    2.1761    0.5217
  154.20   90.03 -179.56     0.002000       0.5271    3.9956    0.4609
   81.94   90.05   -0.37     0.002000       0.5359    3.9866    0.4544
 -171.20   91.00  170.62     0.002000       0.9022    2.9518    0.3676
 -159.92   90.82  175.23     0.002000       0.8210    3.5305    0.3352
  169.52   89.97 -178.52     0.002000       0.6482    4.0268    0.3711
  177.07   90.91 -178.14     0.002000       0.6633    3.8853    0.3766
  170.31   98.65  175.70     0.002000       0.8804    1.5983    0.7081
  150.87   87.30 -168.64     0.002000       0.8997    2.4215    0.4527
   95.01   90.90   -3.21     0.002000       0.7472    3.7462    0.3466
 -144.17   89.91 -170.62     0.002000       0.8931    2.9476    0.3720
  147.26   88.98 -179.69     0.002000       0.5139    3.7953    0.4989
   96.74   89.93    0.95     0.002000       0.5131    3.7732    0.5028
   90.07   89.14    1.87     0.002000       0.7130    3.8851    0.3498
 -157.62   80.88  179.02     0.002000       0.8911    1.6751    0.6668
   88.72   89.42    6.67     0.002000       0.8559    3.2494    0.3508
  155.54   89.98  172.87     0.002000       0.8639    3.2278    0.3500
   76.42   89.06    3.73     0.002000       0.7544    3.6394    0.3541
  163.98   90.43  169.07     0.002000       0.8999    2.7965    0.3900
 -168.39   89.98  178.79     0.002000       0.5738    3.9944    0.4233
  178.87   83.38 -169.20     0.002000       0.8653    1.8130    0.6338
   43.73   85.01  -12.22     0.002000       0.8530    1.9053    0.6113
  170.60   89.78  178.70     0.002000       0.5086    3.8348    0.4988
   97.07   89.07    9.74     0.002000       0.9004    2.8884    0.3768
   49.54   89.41   -0.06     0.002000       0.6571    4.0345    0.3653
  119.93   90.12   -5.16     0.002000       0.8016    3.4748    0.3495
  134.85   91.61  -12.74     0.002000       0.8930    2.4634    0.4483
  164.49   90.30  179.86     0.002000       0.5178    3.7204    0.5056
 -173.71   90.31  178.81     0.002000       0.5302    3.9476    0.4641
  137.41   90.39  179.41     0.002000       0.5666    3.9901    0.4293
   79.21   90.23   -1.29     0.002000       0.5371    3.8653    0.4683
  177.16   92.22  165.92     0.002000       0.8566    2.0636    0.5611
   79.61   89.31   11.26     0.002000       0.8998    2.7180    0.4018
 -156.69   89.54  178.79     0.002000       0.5317    3.8975    0.4690
  126.63   90.30   -1.69     0.002000       0.6059    3.9262    0.4082
 -147.19   90.70  177.47     0.002000       0.6710    3.8245    0.3785
   98.52   89.53   -2.43     0.002000       0.6467    3.8424    0.3910
 -140.89   90.15  178.75     0.002000       0.5235    3.8141    0.4873
  115.93   89.71    1.28     0.002000       0.5393    3.8536    0.4679
  109.49   90.79   -7.33     0.002000       0.8890    3.0639    0.3584
   82.24   91.23  -12.57     0.002000       0.8917    2.4847    0.4450
 -155.52   90.07  178.26     0.002000       0.6224    3.9966    0.3897
   49.17   89.74    1.24     0.002000       0.5223    3.8199    0.4877
   75.72   90.63   12.90     0.002000       0.8874    2.4582    0.4522
   93.19   89.12  -10.06     0.002000       0.9008    2.8553    0.3812
 -169.40   85.49  166.99     0.002000       0.8528    1.9132    0.6089
 -140.03   92.06  167.45     0.002000       0.8407    1.6599    0.7138
 -165.48   90.09 -178.52     0.002000       0.5833    3.9525    0.4210
  172.43   89.94 -178.43     0.002000       0.5713    3.9122    0.4346
 -152.28   90.03 -178.45     0.002000       0.5714    3.9154    0.4341
 -159.53   91.04 -178.70     0.002000       0.6614    3.9499    0.3711
 -144.83   89.24 -179.32     0.002000       0.6629    4.0055    0.3648
  117.31   80.76    0.99     0.002000       0.8884    1.6393    0.6838
   52.43   91.03  -12.84     0.002000       0.8873    2.4461    0.4545
 -156.61   90.61 -174.36     0.002000       0.8610    3.2641    0.3465
   56.33   92.98   12.72     0.002000       0.8720    2.2042    0.5150
  103.00   86.99  -13.38     0.002000       0.8404    1.7915    0.6609
  116.70   98.17   -3.75     0.002000       0.8991    1.8152    0.6088
 -174.56   90.80 -177.27     0.002000       0.6997    3.7834    0.3669
   94.39   89.63    1.32     0.002000       0.5456    3.8903    0.4579
 -134.29   88.40 -167.41     0.002000       0.8911    2.4569    0.4505
 -135.94   86.91 -169.11     0.002000       0.8929    2.3339    0.4738
  130.32   88.95    6.85     0.002000       0.8773    3.2326    0.3438
   76.42   87.24   12.66     0.002000       0.8381    1.7056    0.6966
   82.66   88.91   -2.17     0.002000       0.6903    3.8571    0.3644
  170.45   90.06  178.39     0.002000       0.6226    4.0126    0.3880
 -146.86   90.47 -179.71     0.002000       0.7136    4.0022    0.3388
   84.51   89.59   10.06     0.002000       0.8971    2.8658    0.3814
  148.17   82.76  170.04     0.002000       0.8716    1.7923    0.6366
  101.40   88.06   12.63     0.002000       0.8902    2.4159    0.4589
   99.41   89.44  -13.89     0.002000       0.8600    2.1550    0.5346
  121.60   86.54  -11.91     0.002000       0.8838    2.2481    0.4977
  103.22   86.39   -3.33     0.002000       0.8496    1.4518    0.8087
   63.80   81.82    5.14     0.002000       0.8935    1.8106    0.6143
 -172.11   86.83  169.60     0.002000       0.9003    2.3591    0.4646
   53.86   90.78   -7.85     0.002000       0.8850    3.0968    0.3565
 -161.77   90.96  173.27     0.002000       0.8748    3.2536    0.3425
 -145.44   85.13 -174.57     0.002000       0.8554    1.4857    0.7848
  129.18   97.76   -1.95     0.002000       0.8701    1.5185    0.7546
  159.96   81.52  173.66     0.002000       0.8785    1.6376    0.6923
  162.08   92.66 -166.03     0.002000       0.8522    1.9994    0.5825
  172.36   89.71 -178.99     0.002000       0.6095    4.0218    0.3954
  142.43   90.34  179.33     0.002000       0.5822    4.0158    0.4148
   78.77   80.83    1.55     0.002000       0.8842    1.6274    0.6921
  107.50   88.94    6.34     0.002000       0.8663    3.2853    0.3424
  179.85   88.73  169.48     0.002000       0.9076    2.8150    0.3839
 -177.77   89.04  167.24     0.002000       0.8933    2.5270    0.4365
   76.66   89.86    0.97     0.002000       0.5644    3.9607    0.4343
 -144.12   81.12 -178.96     0.002000       0.8966    1.7311    0.6408
   97.97   93.37   13.44     0.002000       0.8458    1.9215    0.6113
 -155.07   90.14  169.10     0.002000       0.8987    2.7950    0.3908
   57.38   88.69   -9.26     0.002000       0.9081    2.8661    0.3764
   56.82   89.79   -1.08     0.002000       0.5523    3.9534    0.4448
 -162.09   87.25 -166.29     0.002000       0.8421    1.8177    0.6498
  173.30   91.07 -168.21     0.002000       0.9005    2.6473    0.4126
  120.96   90.36   12.76     0.002000       0.8906    2.5109    0.4408
  125.77   90.19    9.09     0.002000       0.8913    2.9845    0.3680
  155.29   86.28  171.49     0.002000       0.9077    2.2911    0.4747
   91.84   90.99   -1.47     0.002000       0.6548    3.9231    0.3776
  118.81   87.61   12.94     0.002000       0.8810    2.2993    0.4880
   86.44   90.75    6.14     0.002000       0.8503    3.3057    0.3468
  114.68   90.00    1.53     0.002000       0.6421    4.0099    0.3764
  166.66   89.27  179.36     0.002000       0.5167    3.7643    0.5005
  137.62   89.70  178.86     0.002000       0.6561    4.0402    0.3653
 -159.51   90.05  178.93     0.002000       0.5160    3.7743    0.4998
  114.90   89.79   -0.02     0.002000       0.5360    3.9905    0.4539
 -152.63   90.27 -174.10     0.002000       0.8346    3.3582    0.3477
  165.19   90.37 -179.53     0.002000       0.5178    3.7370    0.5032
   79.30   87.77   12.85     0.002000       0.8820    2.3234    0.4822
  134.07   81.63  173.51     0.002000       0.8887    1.7623    0.6350
  126.09   97.62    6.28     0.002000       0.8955    1.8603    0.5962
  131.60   81.94   -3.84     0.002000       0.9059    1.8471    0.5936
  136.55   93.00   -8.90     0.002000       0.9092    2.3846    0.4548
  102.51   89.97    0.19     0.002000       0.5387    3.9887    0.4518
 -175.91   90.67 -179.99     0.002000       0.5878    4.0057    0.4119
  108.93   89.31   11.46     0.002000       0.8994    2.6966    0.4053
   96.36   90.91   -3.99     0.002000       0.7743    3.6056    0.3482
 -170.78   89.96  178.31     0.002000       0.5895    3.9574    0.4160
  115.84   89.12   -9.04     0.002000       0.8967    2.9774    0.3666
  117.45   90.42    1.17     0.002000       0.5208    3.8755    0.4817
  159.65   90.61  179.92     0.002000       0.5906    4.0127    0.4092
 -179.92   83.95  171.43     0.002000       0.8592    1.5634    0.7420
   78.48   89.94   -1.60     0.002000       0.6137    3.9781    0.3973
  148.72   89.80  178.77     0.002000       0.5264    3.8010    0.4863
   71.86   83.32   -7.70     0.002000       0.8877    1.9586    0.5706
   53.76   90.85   12.47     0.002000       0.8937    2.5429    0.4335
 -177.08   89.54 -178.94     0.002000       0.5136    3.8184    0.4962
  139.14   89.02 -173.40     0.002000       0.8708    3.2497    0.3445
   88.35   88.96    8.14     0.002000       0.8910    3.0625    0.3582
  154.33   90.70  179.34     0.002000       0.5175    3.7700    0.4990
 -153.48   90.28 -179.54     0.002000       0.5612    4.0049    0.4317
 -177.71   89.11  172.16     0.002000       0.9001    2.9997    0.3619
  153.57   90.89 -174.94     0.002000       0.8369    3.4458    0.3373
  164.93   90.01  178.66     0.002000       0.5796    3.9876    0.4198
   97.63   89.06  -11.13     0.002000       0.9016    2.7276    0.3995
  118.99   90.08    3.57     0.002000       0.7179    3.6954    0.3665
  120.66   88.97   10.37     0.002000       0.9033    2.8213    0.3849
  145.99   93.39  166.59     0.002000       0.8601    2.0501    0.5625
 -173.02   89.09 -175.83     0.002000       0.8058    3.5741    0.3374
  109.19   90.28   13.88     0.002000       0.8640    2.1961    0.5218
  162.83   98.95 -176.59     0.002000       0.8897    1.6652    0.6720
   99.01   89.34    0.24     0.002000       0.6341    4.0277    0.3794
  137.94   90.97 -172.32     0.002000       0.8896    3.1273    0.3510
   76.61   96.75    7.52     0.002000       0.8876    1.9441    0.5751
  165.32   90.49 -178.85     0.002000       0.5294    3.8639    0.4754
  124.79   90.85    5.53     0.002000       0.8445    3.3813    0.3410
 -170.13   86.98  166.10     0.002000       0.8472    1.9270    0.6086
   58.62   86.49  -10.73     0.002000       0.8431    1.6029    0.7374
   51.87   82.76    4.70     0.002000       0.9055    1.9234    0.5697
 -132.50   92.59  171.78     0.002000       0.9153    2.4370    0.4416
 -157.05   94.89  178.88     0.002000       0.8553    1.4549    0.8016
 -177.51   89.26  179.01     0.002000       0.5101    3.8863    0.4905
 -151.96   89.32 -178.77     0.002000       0.6179    3.9448    0.3981
  163.40   90.47 -179.81     0.002000       0.5156    3.7302    0.5063
  150.13   89.65 -176.40     0.002000       0.7313    3.6878    0.3605
  133.62   84.31   11.72     0.002000       0.8609    1.9024    0.6066
   68.95   88.17  -10.88     0.002000       0.9084    2.6314    0.4113
  165.83   89.70  169.10     0.002000       0.8992    2.8030    0.3894
  159.47   90.37  179.01     0.002000       0.5218    3.7749    0.4941
  108.52   90.29   -0.89     0.002000       0.5072    3.9386    0.4864
   80.72   89.29   -0.12     0.002000       0.6620    4.0225    0.3637
   58.55   90.24  -13.41     0.002000       0.8755    2.3270    0.4852
   89.95   91.17   12.22     0.002000       0.8966    2.5575    0.4295
   78.62   89.74   -0.60     0.002000       0.6880    4.0244    0.3496
 -162.81   89.81  178.94     0.002000       0.6544    4.0527    0.3651
  122.22   84.14   -3.09     0.002000       0.9268    2.0558    0.5196
 -140.65   89.79  178.66     0.002000       0.5540    3.9297    0.4462
 -169.98   89.91 -179.20     0.002000       0.5194    3.9734    0.4706
 -151.42   91.22  169.69     0.002000       0.9073    2.8323    0.3816
  179.95   95.58  170.31     0.002000       0.8846    2.0532    0.5456
 -164.08   93.47 -166.73     0.002000       0.8437    1.8044    0.6534
 -170.35   90.77  179.64     0.002000       0.6115    4.0095    0.3954
   72.51   89.27    4.04     0.002000       0.7860    3.5925    0.3439
  161.80   90.25 -178.75     0.002000       0.5516    3.9360    0.4474
  157.72   89.50 -173.61     0.002000       0.8543    3.2926    0.3466
  125.09   87.91  -13.04     0.002000       0.8850    2.3498    0.4750
  147.00   88.77 -169.41     0.002000       0.9060    2.7959    0.3874
 -173.79   88.99 -171.54     0.002000       0.8971    3.0344    0.3592
 -149.14   91.03 -172.77     0.002000       0.8830    3.1814    0.3473
   90.40   81.88   -7.60     0.002000       0.8744    1.7150    0.6637
   97.00   88.61   11.29     0.002000       0.9046    2.6823    0.4051
   77.85   91.34  -11.55     0.002000       0.9025    2.6402    0.4128
 -141.61   86.07  167.77     0.002000       0.8688    2.1253    0.5365
  167.60   89.89  179.38     0.002000       0.5165    3.7300    0.5055
 -176.56   83.22 -176.36     0.002000       0.9162    1.9750    0.5478
 -167.50   86.08 -174.78     0.002000       0.8554    1.4708    0.7928
   76.98   92.20   13.22     0.002000       0.8699    2.2184    0.5128
  152.26   90.88 -174.91     0.002000       0.8373    3.4416    0.3376
   51.17   89.50    2.06     0.002000       0.6287    3.8793    0.3982
  141.70   90.55  179.65     0.002000       0.6372    4.0452    0.3758
   66.45   89.96    0.90     0.002000       0.5510    3.9750    0.4433
 -151.85   98.82 -175.93     0.002000       0.8868    1.6990    0.6605
   70.63   89.88    0.26     0.002000       0.5246    3.9867    0.4642
  105.70   87.68   13.60     0.002000       0.8587    2.1029    0.5490
 -172.06   93.88 -169.52     0.002000       0.8899    2.2422    0.4954
   56.99   83.70   10.79     0.002000       0.8639    1.8806    0.6116
 -166.96   81.27 -175.37     0.002000       0.8903    1.7184    0.6503
 -147.45   89.10  166.43     0.002000       0.8763    2.3176    0.4867
  146.73   88.98 -177.86     0.002000       0.6876    3.8565    0.3659
  122.77   90.69   -4.54     0.002000       0.8041    3.5611    0.3392
 -151.17   90.55  179.57     0.002000       0.5813    4.0056    0.4166
  139.01   89.34  168.07     0.002000       0.8984    2.6585    0.4118
 -165.95   88.91  169.87     0.002000       0.9049    2.8631    0.3783
   52.54   86.01   -9.08     0.002000       0.8957    2.2480    0.4908
  110.72   89.32   -1.21     0.002000       0.7057    3.9564    0.3468
  104.53   91.60  -11.04     0.002000       0.9080    2.6742    0.4047
  104.85   88.82   12.07     0.002000       0.8983    2.5891    0.4233
  110.44   94.33   10.30     0.002000       0.8853    2.1730    0.5144
  170.40   92.22  168.01     0.002000       0.8996    2.4711    0.4434
 -144.33   90.46  170.31     0.002000       0.8966    2.9233    0.3738
  176.28   90.10 -170.06     0.002000       0.8966    2.8954    0.3775
  178.76   89.81  178.91     0.002000       0.5232    3.7769    0.4925
 -143.35   90.23 -179.73     0.002000       0.6987    4.0313    0.3435
  123.87   87.24  -13.17     0.002000       0.8741    2.2159    0.5109
  147.08   89.20  170.77     0.002000       0.8978    2.9728    0.3668
   93.51   90.93   -5.81     0.002000       0.8486    3.3477    0.3429
   78.70   95.24  -11.70     0.002000       0.8583    1.9446    0.5949
  151.96   89.55 -179.50     0.002000       0.5176    3.7416    0.5028
  171.94   96.72  169.37     0.002000       0.8672    1.8134    0.6323
  117.81   90.14   -1.17     0.002000       0.5250    3.8058    0.4870
   57.19   83.26   10.44     0.002000       0.8624    1.8037    0.6393
 -146.79   93.08  168.50     0.002000       0.8906    2.3243    0.4771
 -154.87   90.20 -165.96     0.002000       0.8569    2.1259    0.5441
 -150.74   89.48  173.34     0.002000       0.8575    3.2678    0.3481
  149.80   89.31  174.18     0.002000       0.8500    3.3732    0.3393
   59.04   90.71  -11.73     0.002000       0.8979    2.6478    0.4137
 -171.59   89.81 -172.36     0.002000       0.8754    3.1465    0.3546
  147.78   89.48  169.14     0.002000       0.9001    2.8009    0.3893
 -134.74   89.13 -174.97     0.002000       0.8343    3.4593    0.3369
 -153.15   89.33  165.83     0.002000       0.8554    2.1033    0.5511
   88.12   91.96   10.95     0.002000       0.9069    2.5660    0.4229
 -151.88   89.11  172.15     0.002000       0.8982    3.0043    0.3621
  120.99   90.76  -10.99     0.002000       0.9013    2.7624    0.3944
  164.08   90.73  178.97     0.002000       0.5126    3.8438    0.4936
 -163.15   86.42  172.42     0.002000       0.8520    1.4998    0.7804
  143.43   87.79  172.26     0.002000       0.9242    2.5186    0.4225
  146.82   87.07 -167.39     0.002000       0.8824    2.2779    0.4919
 -153.53   90.31  178.64     0.002000       0.5470    3.9380    0.4509
  148.32   89.37 -178.27     0.002000       0.6298    3.9092    0.3943
 -164.94   89.67 -173.20     0.002000       0.8612    3.2414    0.3495
  146.43   92.00  168.86     0.002000       0.9086    2.5717    0.4211
 -144.26   89.85  166.84     0.002000       0.8855    2.4440    0.4559
  148.67   89.93 -178.82     0.002000       0.5078    3.8350    0.4995
 -166.13   92.96 -167.62     0.002000       0.8821    2.2773    0.4922
  108.41   90.06    1.25     0.002000       0.5977    3.9872    0.4070
  124.96   90.27    6.56     0.002000       0.8529    3.2744    0.3492
   51.68   90.32    0.41     0.002000       0.5545    3.9822    0.4396
 -158.66   88.45 -171.11     0.002000       0.9170    2.6828    0.3990
   87.50   89.61   -0.26     0.002000       0.5545    3.9888    0.4389
   62.78   98.20   -6.86     0.002000       0.8747    1.6977    0.6702
 -148.53   88.23 -168.34     0.002000       0.9033    2.5763    0.4230
 -155.81   90.88 -171.51     0.002000       0.8936    3.0291    0.3613
  102.66   89.49   -9.36     0.002000       0.8939    2.9473    0.3717
   85.73   88.72  -13.87     0.002000       0.8522    2.0733    0.5613
 -152.27   96.29 -177.40     0.002000       0.8596    1.4835    0.7820
 -146.85   90.70 -169.89     0.002000       0.8997    2.8566    0.3815
 -176.35   89.77 -179.96     0.002000       0.5454    4.0008    0.4448
   72.78   89.83  -12.83     0.002000       0.8874    2.4736    0.4493
   66.18   91.11    8.76     0.002000       0.8999    2.9981    0.3625
   47.46   90.90   10.25     0.002000       0.9023    2.8422    0.3824
  140.03   89.29 -175.11     0.002000       0.8113    3.4817    0.3445
   73.69   88.19  -13.82     0.002000       0.8457    1.9954    0.5883
  176.60   85.02  168.81     0.002000       0.8760    2.0823    0.5433
   98.83   89.87   -1.37     0.002000       0.6590    4.0193    0.3657
  154.41   89.29 -179.08     0.002000       0.5073    3.8822    0.4937
  162.78   91.77 -169.63     0.002000       0.9134    2.6441    0.4069
   96.87   88.34   -9.18     0.002000       0.9154    2.6725    0.4013
  101.84   91.94  -11.49     0.002000       0.9041    2.5538    0.4264
  156.25   84.94 -167.40     0.002000       0.8528    1.8153    0.6424
   79.81   90.24   -0.06     0.002000       0.5479    3.9895    0.4441
  100.65   91.11    9.49     0.002000       0.9034    2.9126    0.3722
 -154.49   87.15 -167.33     0.002000       0.8778    2.2559    0.4994
   88.58   89.95  -10.21     0.002000       0.8965    2.8522    0.3836
   96.72   89.27   -0.25     0.002000       0.5951    3.9921    0.4083
 -169.55   94.61 -170.32     0.002000       0.8890    2.1671    0.5136
   67.88   90.03  -12.13     0.002000       0.8943    2.5988    0.4236
  147.92   89.04 -168.23     0.002000       0.8999    2.6605    0.4107
  103.97   88.94  -14.11     0.002000       0.8461    1.9985    0.5871
 -157.15   95.00 -167.94     0.002000       0.8487    1.7534    0.6688
  135.68   90.22 -178.90     0.002000       0.5220    3.8055    0.4898
  165.97   91.20  167.78     0.002000       0.8996    2.6013    0.4206
  144.00   91.82 -170.80     0.002000       0.9172    2.6018    0.4118
   62.16   90.12    0.18     0.002000       0.5412    3.9943    0.4490
  135.77   90.95  179.41     0.002000       0.5120    3.8259    0.4966
  173.21   92.73  165.91     0.002000       0.8494    1.9542    0.5984
   89.21   89.40   -1.09     0.002000       0.5140    3.8912    0.4860
  146.26   91.17 -167.98     0.002000       0.8999    2.6125    0.4185
   72.11   89.49    0.70     0.002000       0.5701    3.9693    0.4290
  132.21   90.23    0.67     0.002000       0.5677    3.9958    0.4278
  116.56   89.56   -0.28     0.002000       0.5592    3.9907    0.4348
  100.01   91.09   -8.49     0.002000       0.8971    3.0284    0.3598
   89.11   90.10   -0.71     0.002000       0.5192    3.9639    0.4719
  179.44   92.76  173.83     0.002000       0.9294    2.4108    0.4395
 -152.46   90.36  179.87     0.002000       0.6992    4.0254    0.3438
  144.16   90.07 -178.92     0.002000       0.5094    3.9304    0.4854
 -174.42   86.05 -166.66     0.002000       0.8474    1.8311    0.6409
  161.36   83.47 -172.75     0.002000       0.8635    1.5460    0.7467
   63.75   89.63    0.93     0.002000       0.5982    4.0050    0.4048
