MORPHOLOGY AT STRAIN =    1.0000  FOR PHASE  1
   0.605   2.692   0.605  <-- AXES OF PHASE ELLIPSOID
  178.22   90.00  180.00  <-- EULER ANGLES OF PHASE ELLIPSOID (deg)
   0.717   2.763   0.522  <-- AVERAGE OF GRAIN AXES FOR PHASE
   0.140   0.212   0.183  <-- STANDARD DEV OF AVG GRAIN AXES FOR PHASE
B       500
  145.13   89.25 -175.42     0.002000       0.7178    2.0328    0.6801
  142.15   87.85  172.35     0.002000       0.7850    2.4902    0.5048
   77.53   89.95   -8.43     0.002000       0.8496    2.8107    0.4112
  123.23   88.50    7.26     0.002000       0.8705    2.7323    0.4128
   70.16   90.04   -0.05     0.002000       0.5699    3.5465    0.4826
  170.65   90.62  179.41     0.002000       0.5337    3.4681    0.5277
 -139.64   91.72 -172.38     0.002000       0.8214    2.6209    0.4573
  129.15   89.92   -0.91     0.002000       0.6347    3.5194    0.4366
  129.44   91.95   -1.30     0.002000       0.7219    1.9781    0.6953
  178.32   93.75 -176.25     0.002000       0.7334    2.0836    0.6490
   54.21   89.47   -0.76     0.002000       0.5881    3.5340    0.4694
  143.94   90.09 -179.23     0.002000       0.5369    3.4715    0.5240
 -142.42   94.14  177.26     0.002000       0.7406    2.0602    0.6501
  165.64   90.51 -171.66     0.002000       0.8441    2.7658    0.4209
 -167.58   90.70 -171.87     0.002000       0.8022    2.6074    0.4711
  172.17   90.38  179.09     0.002000       0.5488    3.5403    0.5022
 -149.04   90.22  178.90     0.002000       0.5574    3.5102    0.4989
 -146.08   88.93  174.66     0.002000       0.8182    3.1797    0.3754
 -153.23   86.99  174.21     0.002000       0.7304    2.1810    0.6220
 -168.87   88.88  177.94     0.002000       0.7053    3.4347    0.4026
  170.94   87.44  173.41     0.002000       0.7363    2.2426    0.5996
   91.08   91.07   -6.53     0.002000       0.8562    3.0482    0.3747
  176.50   90.25 -179.19     0.002000       0.5318    3.5431    0.5179
   90.01   90.15   -8.38     0.002000       0.8274    2.7005    0.4403
  144.20   89.01  178.80     0.002000       0.6908    3.4768    0.4059
  136.74   92.23 -172.52     0.002000       0.7841    2.4760    0.5084
  132.23   89.94    0.75     0.002000       0.5352    3.4687    0.5261
 -135.13   89.06 -173.91     0.002000       0.8564    3.0637    0.3725
   98.19   89.98   -0.95     0.002000       0.5435    3.4907    0.5146
   81.71   94.29    1.05     0.002000       0.7439    2.0399    0.6538
  140.96   89.26  178.77     0.002000       0.6223    3.5171    0.4457
   83.94   93.53    2.96     0.002000       0.7288    2.0381    0.6680
   56.06   93.92   -4.46     0.002000       0.7379    2.1387    0.6280
  138.40   89.79 -176.21     0.002000       0.6891    3.3840    0.4188
   69.08   92.93   -3.66     0.002000       0.7219    2.0437    0.6725
   80.38   92.63   -5.97     0.002000       0.7285    2.1960    0.6192
  107.63   88.85   -6.70     0.002000       0.7254    2.2101    0.6179
 -179.94   91.01 -176.61     0.002000       0.7625    3.3174    0.3857
   92.45   89.22   -6.38     0.002000       0.8263    3.1049    0.3812
  111.34   89.80    0.49     0.002000       0.5744    3.5446    0.4791
  167.28   84.91 -179.36     0.002000       0.7796    2.1095    0.6027
 -163.87   90.78 -179.37     0.002000       0.5342    3.5180    0.5194
  117.07   90.31    3.75     0.002000       0.6890    3.3792    0.4194
 -135.64   91.63  177.38     0.002000       0.7188    1.9886    0.6946
 -147.78   91.40  172.00     0.002000       0.8018    2.5873    0.4750
 -149.01   90.40 -177.08     0.002000       0.8292    3.2537    0.3614
 -167.16   93.71 -177.31     0.002000       0.8627    2.3236    0.4924
  129.39   85.08    2.34     0.002000       0.7965    2.1787    0.5705
   67.49   85.66   -1.90     0.002000       0.8413    2.2504    0.5221
 -163.45   92.20  173.28     0.002000       0.8409    2.5560    0.4581
 -171.06   90.98  177.35     0.002000       0.6759    3.4350    0.4203
  103.08   89.07    1.09     0.002000       0.6343    3.4944    0.4401
 -144.64   86.34 -179.99     0.002000       0.7342    2.0070    0.6736
   86.70   89.52    1.88     0.002000       0.6062    3.4967    0.4604
 -142.16   90.28  179.08     0.002000       0.7136    1.9641    0.7086
 -138.10   89.01  171.83     0.002000       0.8588    2.8261    0.4043
  120.64   89.23    8.03     0.002000       0.7649    2.4663    0.5234
   92.72   85.46    3.30     0.002000       0.8066    2.2301    0.5500
  165.04   90.40 -179.61     0.002000       0.5356    3.4574    0.5275
   45.71   90.00   -0.98     0.002000       0.5846    3.5165    0.4746
   52.05   90.18    0.98     0.002000       0.5401    3.4893    0.5182
  127.43   89.41    8.16     0.002000       0.7801    2.5257    0.5007
   76.32   94.96    0.83     0.002000       0.7713    2.0997    0.6121
   48.65   89.39   -0.81     0.002000       0.5425    3.5113    0.5124
  127.72   94.99   -0.02     0.002000       0.8102    2.1639    0.5647
  155.08   88.04 -177.58     0.002000       0.7229    1.9890    0.6905
  107.68   89.17   -8.15     0.002000       0.7990    2.5923    0.4758
   93.36   88.89    1.29     0.002000       0.7153    1.9694    0.7049
  160.16   89.06  174.70     0.002000       0.8328    3.1486    0.3724
 -153.37   87.89 -174.83     0.002000       0.7199    2.0914    0.6587
  171.65   90.73  174.25     0.002000       0.8043    3.1832    0.3817
  118.28   90.02    0.19     0.002000       0.5597    3.5538    0.4905
 -170.14   90.22 -179.66     0.002000       0.5652    3.5533    0.4857
 -137.54   89.08 -176.52     0.002000       0.7697    3.3045    0.3836
  125.32   89.87    0.23     0.002000       0.5869    3.5496    0.4682
 -177.15   89.50  178.99     0.002000       0.5467    3.5067    0.5092
   92.39   88.74   -8.00     0.002000       0.8510    2.7631    0.4177
   66.79   88.95   -5.28     0.002000       0.7148    2.0839    0.6659
 -152.42   90.88  179.03     0.002000       0.6549    3.4992    0.4255
   95.12   90.02   -7.72     0.002000       0.7448    2.3727    0.5595
 -137.56   90.99  172.16     0.002000       0.8673    2.9102    0.3882
  153.15   89.84  178.89     0.002000       0.6094    3.5229    0.4543
   47.82   88.93   -3.67     0.002000       0.7230    3.3432    0.4040
  178.55   90.51  176.03     0.002000       0.7013    3.3718    0.4130
  164.93   90.23  179.50     0.002000       0.5348    3.4512    0.5292
   89.83   90.79    1.57     0.002000       0.6381    3.4830    0.4390
 -170.40   87.16  174.27     0.002000       0.8470    2.4745    0.4702
   54.55   89.90   -0.98     0.002000       0.5860    3.5153    0.4737
  151.70   91.24 -175.50     0.002000       0.7190    2.0348    0.6783
 -172.99   94.27  175.74     0.002000       0.7549    2.1587    0.6080
   75.34   90.46   -0.22     0.002000       0.7041    3.4822    0.3975
 -174.34   88.96 -178.28     0.002000       0.6703    3.4640    0.4201
  149.02   89.93 -179.63     0.002000       0.5417    3.5598    0.5059
  144.72   92.76  177.32     0.002000       0.7264    2.0097    0.6799
 -152.84   90.63 -179.28     0.002000       0.5376    3.4916    0.5201
   97.76   89.59    8.10     0.002000       0.7776    2.5205    0.5035
 -170.40   86.09  175.97     0.002000       0.7345    2.0975    0.6436
 -141.36   90.89  171.84     0.002000       0.8606    2.8488    0.4001
  113.68   92.89    4.47     0.002000       0.7248    2.0716    0.6607
 -162.79   89.61  179.74     0.002000       0.6038    3.5373    0.4566
   80.23   85.75   -2.71     0.002000       0.7406    2.0709    0.6467
  144.21   90.96 -179.91     0.002000       0.5320    3.4911    0.5258
   73.30   93.91    3.86     0.002000       0.7333    2.0942    0.6457
   56.24   94.43    3.93     0.002000       0.7520    2.1539    0.6118
  148.98   89.98  179.30     0.002000       0.5355    3.4569    0.5277
  142.69   91.33 -174.18     0.002000       0.9000    2.7045    0.4031
  146.67   89.62  179.53     0.002000       0.6519    3.5206    0.4248
 -147.60   88.90  178.53     0.002000       0.7164    1.9707    0.7034
  136.92   91.77 -175.71     0.002000       0.7204    2.0339    0.6773
 -169.80   90.99 -175.56     0.002000       0.7642    3.2719    0.3906
   99.95   91.59    7.79     0.002000       0.7794    2.5081    0.5048
 -162.41   91.39 -172.31     0.002000       0.7566    2.4236    0.5388
  107.69   87.69   -1.26     0.002000       0.7232    1.9818    0.6928
 -178.33   90.64 -173.60     0.002000       0.7205    2.1635    0.6358
   65.91   89.58   -2.19     0.002000       0.6161    3.4874    0.4543
   66.10   86.71   -0.34     0.002000       0.7289    1.9977    0.6818
 -138.20   90.31  173.90     0.002000       0.7164    2.1270    0.6506
 -145.73   92.86  174.85     0.002000       0.7255    2.1115    0.6472
   79.48   90.83   -7.28     0.002000       0.8549    2.9938    0.3825
  111.14   90.81   -4.64     0.002000       0.8214    3.1676    0.3752
  133.03   89.84    0.04     0.002000       0.5554    3.5552    0.4940
  127.64   90.29   -0.68     0.002000       0.5347    3.4641    0.5273
  142.40   90.74  177.03     0.002000       0.7756    3.3329    0.3772
  141.44   87.40    3.79     0.002000       0.7227    2.0330    0.6754
  119.27   90.54    8.11     0.002000       0.8598    2.8861    0.3951
  175.04   87.52  173.93     0.002000       0.8536    2.5297    0.4560
  152.04   90.47  179.89     0.002000       0.5344    3.4521    0.5295
   76.86   93.24    2.90     0.002000       0.7255    2.0265    0.6750
   74.07   88.90    0.57     0.002000       0.7145    1.9659    0.7070
   71.34   89.88    0.82     0.002000       0.6241    3.5222    0.4437
  101.42   90.32    0.93     0.002000       0.5579    3.5231    0.4965
   84.45   88.42   -7.75     0.002000       0.8349    2.6698    0.4413
 -153.53   90.38  179.11     0.002000       0.5396    3.5452    0.5101
 -156.01   94.80 -178.45     0.002000       0.8127    2.1908    0.5558
   89.03   94.57   -3.57     0.002000       0.7872    2.2108    0.5687
   59.71   89.03    5.60     0.002000       0.7148    2.0957    0.6620
 -178.17   89.61  179.84     0.002000       0.7047    3.4960    0.3955
 -162.67   88.94  172.41     0.002000       0.8682    2.9548    0.3817
   93.62   89.98    0.19     0.002000       0.5721    3.5484    0.4805
  155.78   93.63 -174.65     0.002000       0.7436    2.1946    0.6070
 -138.22   90.81 -171.85     0.002000       0.8156    2.6531    0.4550
 -156.76   85.55  177.02     0.002000       0.8263    2.2551    0.5305
   94.75   89.95   -0.92     0.002000       0.6719    3.4993    0.4147
  173.81   90.82 -175.73     0.002000       0.7427    3.3052    0.3978
  135.13   89.42  179.27     0.002000       0.6087    3.5338    0.4534
  151.43   94.35 -176.87     0.002000       0.7479    2.0942    0.6331
   81.99   93.65    5.49     0.002000       0.7459    2.2211    0.5977
   96.24   89.88   -1.03     0.002000       0.6076    3.5127    0.4571
  160.52   90.10  179.79     0.002000       0.5356    3.4440    0.5296
   85.56   85.30    2.88     0.002000       0.7576    2.1196    0.6172
  132.57   85.99  178.47     0.002000       0.7409    2.0269    0.6608
  130.92   85.99    0.23     0.002000       0.7408    2.0188    0.6636
 -168.94   89.20  176.55     0.002000       0.6883    3.3980    0.4175
   94.93   90.96    7.98     0.002000       0.7743    2.5051    0.5088
   92.88   90.43    0.24     0.002000       0.6246    3.5201    0.4436
 -162.81   91.00  173.14     0.002000       0.8565    3.0433    0.3752
  146.00   94.75 -177.57     0.002000       0.8094    2.1988    0.5561
  133.32   89.25   -7.01     0.002000       0.8467    3.0483    0.3791
  158.75   89.45 -179.13     0.002000       0.5473    3.5167    0.5071
  167.54   89.52 -179.53     0.002000       0.7332    3.4670    0.3832
  151.62   92.70 -173.02     0.002000       0.7645    2.3750    0.5443
   53.71   90.67    5.23     0.002000       0.8778    2.9946    0.3718
   82.45   86.91   -5.77     0.002000       0.7348    2.2044    0.6115
  114.49   91.92    2.23     0.002000       0.7217    1.9867    0.6924
  116.53   88.78   -7.27     0.002000       0.7354    2.2897    0.5878
   48.85   93.21    0.29     0.002000       0.7287    1.9950    0.6829
   57.00   90.14    8.23     0.002000       0.7899    2.5654    0.4866
  156.74   89.38  179.03     0.002000       0.5396    3.5246    0.5132
  145.47   89.52 -179.67     0.002000       0.5344    3.4557    0.5289
  162.57   91.44  173.70     0.002000       0.7241    2.1579    0.6343
  111.88   88.78    7.89     0.002000       0.7655    2.4640    0.5235
 -134.37   89.41 -178.81     0.002000       0.6146    3.5149    0.4516
   97.52   89.95    0.96     0.002000       0.6628    3.5045    0.4198
   72.47   89.60   -0.09     0.002000       0.7013    3.4855    0.3987
  160.91   94.81  179.89     0.002000       0.8260    2.1935    0.5461
  112.86   91.41   -7.70     0.002000       0.8647    2.7624    0.4110
  165.06   94.26 -179.27     0.002000       0.7473    2.0376    0.6516
   73.05   91.46   -7.82     0.002000       0.8444    2.7090    0.4297
   99.20   88.97   -8.02     0.002000       0.7875    2.5511    0.4909
 -149.80   89.48  179.85     0.002000       0.6507    3.5149    0.4263
   62.49   94.33    1.18     0.002000       0.8503    2.2539    0.5157
  121.63   90.45   -0.89     0.002000       0.5428    3.4975    0.5143
   94.94   91.83   -7.56     0.002000       0.7639    2.4413    0.5296
   96.82   91.40    2.87     0.002000       0.7177    1.9912    0.6947
  161.17   89.77 -174.13     0.002000       0.7182    2.1061    0.6556
   53.20   94.82    1.62     0.002000       0.8178    2.2010    0.5497
  128.02   90.44    8.01     0.002000       0.7567    2.4317    0.5369
  178.09   89.65 -171.63     0.002000       0.8341    2.7255    0.4325
   52.16   88.64   -7.90     0.002000       0.8098    2.6198    0.4643
  116.19   89.11    2.52     0.002000       0.6531    3.4464    0.4337
  165.86   91.49 -172.17     0.002000       0.7741    2.4913    0.5118
   83.98   92.57   -0.25     0.002000       0.7233    1.9823    0.6925
 -137.85   85.32 -178.28     0.002000       0.7540    2.0745    0.6340
  121.36   90.07   -0.80     0.002000       0.5346    3.4671    0.5270
  145.68   91.09 -176.94     0.002000       0.7344    3.3640    0.3949
  162.38   89.91  178.85     0.002000       0.5877    3.5188    0.4718
   52.56   89.92   -0.77     0.002000       0.6234    3.5209    0.4443
  141.10   89.60 -179.08     0.002000       0.5508    3.5048    0.5057
  164.17   88.48  171.98     0.002000       0.7966    2.5677    0.4819
  179.53   94.42 -176.56     0.002000       0.8084    2.2420    0.5457
  178.89   90.99  178.24     0.002000       0.7084    3.4486    0.3991
   84.80   86.94    1.13     0.002000       0.7260    1.9949    0.6854
 -168.13   85.85 -175.44     0.002000       0.7476    2.1643    0.6124
  162.74   89.86 -179.53     0.002000       0.5430    3.5578    0.5050
   73.22   89.85   -0.33     0.002000       0.5585    3.5490    0.4922
 -171.99   90.90  171.72     0.002000       0.8557    2.8146    0.4076
 -150.11   91.07  176.59     0.002000       0.7527    3.3370    0.3884
  169.22   89.97 -179.08     0.002000       0.6667    3.5135    0.4162
  163.55   90.78 -179.19     0.002000       0.6366    3.5103    0.4365
  172.76   93.61  179.17     0.002000       0.7371    2.0097    0.6701
  164.20   86.11 -174.50     0.002000       0.7836    2.3025    0.5480
  104.94   91.05   -2.47     0.002000       0.7331    3.3900    0.3924
 -144.23   89.89 -171.61     0.002000       0.8520    2.8210    0.4084
  149.05   89.09 -179.78     0.002000       0.5344    3.4785    0.5254
  100.30   89.86    0.78     0.002000       0.5328    3.4688    0.5285
   95.37   89.19    1.90     0.002000       0.7508    3.3902    0.3830
 -158.69   85.46  179.81     0.002000       0.7504    2.0468    0.6459
   89.67   89.44    5.25     0.002000       0.7647    3.2371    0.3948
  155.48   89.96  174.37     0.002000       0.7763    3.2327    0.3894
   85.96   88.92    2.33     0.002000       0.6636    3.4369    0.4279
  163.82   90.40  171.64     0.002000       0.7988    2.5915    0.4761
 -163.82   90.20  179.08     0.002000       0.5943    3.5354    0.4643
 -169.67   85.58 -177.73     0.002000       0.7464    2.0633    0.6441
 -151.24   94.08 -176.91     0.002000       0.7371    2.0773    0.6477
  158.71   89.57  178.96     0.002000       0.5306    3.4913    0.5271
   96.42   89.16    8.23     0.002000       0.8363    2.7253    0.4314
   54.23   89.61   -0.08     0.002000       0.6975    3.4933    0.4000
  121.17   90.12   -3.43     0.002000       0.6651    3.4205    0.4292
  142.34   92.43  173.16     0.002000       0.7433    2.2875    0.5820
  160.85   90.22  179.85     0.002000       0.5356    3.4452    0.5295
 -168.19   90.44  179.02     0.002000       0.5502    3.5351    0.5017
  147.97   90.20  179.73     0.002000       0.5729    3.5540    0.4791
   80.18   90.20   -0.95     0.002000       0.5516    3.5050    0.5049
 -171.61   92.72  174.84     0.002000       0.7261    2.1056    0.6486
   79.90   89.28    8.03     0.002000       0.7735    2.5060    0.5091
 -157.61   89.50  179.03     0.002000       0.5495    3.5202    0.5046
  133.79   90.26   -1.05     0.002000       0.5818    3.5409    0.4736
 -135.93   90.73  178.55     0.002000       0.6189    3.5061    0.4496
   90.78   89.48   -1.53     0.002000       0.6003    3.5145    0.4625
 -139.99   90.12  178.99     0.002000       0.5388    3.4858    0.5199
  115.48   89.71    0.95     0.002000       0.5519    3.5032    0.5049
  114.50   91.14   -6.62     0.002000       0.8903    2.7995    0.3933
   87.88   91.92   -6.99     0.002000       0.7381    2.3024    0.5823
 -155.14   90.02  178.86     0.002000       0.6365    3.5166    0.4357
   50.60   89.76    1.00     0.002000       0.5384    3.4880    0.5199
   72.42   91.03    7.21     0.002000       0.7308    2.2827    0.5933
   94.07   89.22   -8.23     0.002000       0.8249    2.6862    0.4440
  175.32   86.00  176.54     0.002000       0.7365    2.0740    0.6493
 -134.69   91.22  176.46     0.002000       0.7168    2.0032    0.6914
 -166.04   90.17 -179.08     0.002000       0.5964    3.5241    0.4642
  172.52   89.93 -179.02     0.002000       0.5793    3.5185    0.4788
 -151.48   90.06 -179.03     0.002000       0.5809    3.5170    0.4776
 -169.28   90.90 -179.27     0.002000       0.6751    3.4889    0.4139
 -136.79   89.46 -179.71     0.002000       0.7006    3.4887    0.3987
  119.36   85.75    0.10     0.002000       0.7444    2.0303    0.6565
   57.30   91.64   -6.98     0.002000       0.7327    2.2774    0.5932
 -160.22   90.75 -174.53     0.002000       0.8919    2.9250    0.3749
   41.72   93.95    4.90     0.002000       0.7426    2.1788    0.6123
   91.41   87.52   -3.75     0.002000       0.7204    2.0325    0.6777
  120.27   94.97   -0.63     0.002000       0.7770    2.1062    0.6056
  173.30   90.81 -178.60     0.002000       0.6311    3.4993    0.4417
   94.79   89.62    0.95     0.002000       0.5601    3.5141    0.4960
   53.55   92.52   -6.69     0.002000       0.7403    2.2886    0.5840
   58.46   94.15   -4.72     0.002000       0.7911    2.2732    0.5500
  132.05   88.90    6.06     0.002000       0.8456    3.1007    0.3727
   88.77   87.92    3.49     0.002000       0.7170    2.0141    0.6874
   71.68   88.89   -1.33     0.002000       0.6792    3.4650    0.4144
  169.04   89.96  178.90     0.002000       0.6403    3.5191    0.4327
 -147.41   90.45 -179.26     0.002000       0.7465    3.4480    0.3785
   83.97   89.66    8.35     0.002000       0.8273    2.6960    0.4411
  138.50   85.48  177.97     0.002000       0.7509    2.0624    0.6405
  111.09   87.07    6.35     0.002000       0.7409    2.2650    0.5899
   96.89   89.27   -6.03     0.002000       0.7178    2.1352    0.6468
  107.07   85.69   -4.57     0.002000       0.7694    2.2119    0.5817
  107.39   89.02   -0.79     0.002000       0.7160    1.9661    0.7055
   68.43   85.08    1.07     0.002000       0.7697    2.0981    0.6139
  174.48   85.90  175.20     0.002000       0.8057    2.3007    0.5333
   53.56   90.69   -7.13     0.002000       0.8506    3.0194    0.3811
 -159.27   91.03  174.47     0.002000       0.8178    3.1725    0.3766
 -142.08   88.28 -178.84     0.002000       0.7194    1.9741    0.6992
  132.07   92.72   -0.25     0.002000       0.7280    1.9852    0.6870
  154.44   86.02  178.90     0.002000       0.7408    2.0208    0.6629
  148.61   93.04 -175.38     0.002000       0.7275    2.0876    0.6531
  168.51   89.94 -179.29     0.002000       0.6366    3.5261    0.4344
  134.86   89.96   -0.64     0.002000       0.6080    3.5380    0.4534
   80.43   85.92    0.31     0.002000       0.7395    2.0247    0.6628
  109.97   88.86    5.30     0.002000       0.8128    3.1776    0.3783
  178.15   88.53  171.96     0.002000       0.8115    2.6186    0.4635
  178.28   88.53  172.53     0.002000       0.7409    2.3243    0.5745
   78.77   89.86    0.63     0.002000       0.5610    3.5440    0.4907
 -143.26   85.16 -179.89     0.002000       0.7610    2.0730    0.6286
   83.07   93.40    4.00     0.002000       0.7265    2.0720    0.6589
 -155.54   90.08  171.65     0.002000       0.7986    2.5946    0.4757
   52.03   88.28   -7.26     0.002000       0.8480    2.6599    0.4360
   54.62   89.66   -0.76     0.002000       0.5734    3.5319    0.4818
 -149.54   87.42 -176.10     0.002000       0.7218    2.0387    0.6743
  170.39   91.43 -172.27     0.002000       0.7575    2.4226    0.5383
  120.00   90.49    7.52     0.002000       0.7360    2.3130    0.5812
  126.24   90.16    8.31     0.002000       0.8579    2.8698    0.3984
  144.14   85.95  176.28     0.002000       0.8406    2.3047    0.5099
  102.24   90.86   -0.89     0.002000       0.6653    3.4874    0.4203
  131.11   86.56    5.66     0.002000       0.7398    2.2080    0.6063
   83.77   90.76    4.67     0.002000       0.7513    3.2737    0.3972
  114.44   89.97    0.97     0.002000       0.6609    3.5084    0.4205
  162.16   89.34  179.51     0.002000       0.5353    3.4644    0.5267
  138.56   89.77  179.23     0.002000       0.6825    3.5073    0.4072
 -162.11   89.98  179.12     0.002000       0.5341    3.4679    0.5273
  121.75   89.89   -0.15     0.002000       0.5500    3.5543    0.4990
 -153.72   90.27 -175.92     0.002000       0.7029    3.3571    0.4139
  160.61   90.31 -179.67     0.002000       0.5355    3.4528    0.5283
   90.97   86.74    5.82     0.002000       0.7372    2.2205    0.6049
  128.86   85.23   -1.23     0.002000       0.7602    2.0717    0.6297
  120.31   94.97    1.32     0.002000       0.7809    2.1176    0.5993
  128.72   84.90   -0.80     0.002000       0.7865    2.1224    0.5936
  147.98   93.63  175.33     0.002000       0.8362    2.3520    0.5020
   98.68   89.93    0.02     0.002000       0.5486    3.5536    0.5004
  174.03   90.28  179.78     0.002000       0.6094    3.5388    0.4522
  110.18   89.16    8.00     0.002000       0.7674    2.4774    0.5193
  105.59   91.05   -2.61     0.002000       0.6825    3.4216    0.4179
 -171.22   89.88  178.89     0.002000       0.6011    3.5226    0.4607
  117.15   89.26   -8.19     0.002000       0.8585    2.8610    0.3994
  112.88   90.43    0.93     0.002000       0.5399    3.5097    0.5152
  149.26   90.20  179.67     0.002000       0.6130    3.5387    0.4495
  171.27   87.38  178.28     0.002000       0.7267    1.9900    0.6866
   78.95   89.97   -1.00     0.002000       0.6290    3.5094    0.4418
  147.30   89.80  179.02     0.002000       0.5404    3.4798    0.5193
   63.46   85.06   -1.73     0.002000       0.7865    2.1476    0.5864
   50.07   91.32    7.49     0.002000       0.7410    2.3427    0.5697
 -172.45   89.54 -179.19     0.002000       0.5330    3.4862    0.5255
  140.37   89.04 -174.53     0.002000       0.8091    3.1795    0.3798
   87.48   89.09    7.50     0.002000       0.8600    2.9597    0.3848
  154.45   90.58  179.45     0.002000       0.5357    3.4668    0.5259
 -144.32   89.97 -179.55     0.002000       0.5833    3.5462    0.4716
  176.80   88.77  173.28     0.002000       0.8905    2.7868    0.3950
  147.07   91.05 -176.57     0.002000       0.7312    3.3499    0.3985
  161.50   89.80  179.03     0.002000       0.5992    3.5323    0.4609
   97.28   89.01   -8.00     0.002000       0.7783    2.5188    0.5033
  116.41   90.10    2.22     0.002000       0.6177    3.4869    0.4531
  121.04   88.94    8.11     0.002000       0.8108    2.6263    0.4625
  159.99   93.69  175.59     0.002000       0.7368    2.1111    0.6374
 -162.53   88.87 -177.50     0.002000       0.7073    3.4081    0.4047
  107.56   90.45    6.32     0.002000       0.7182    2.1511    0.6416
  159.24   94.29 -179.49     0.002000       0.7485    2.0379    0.6504
   93.31   89.59    0.31     0.002000       0.6709    3.5053    0.4145
  137.55   90.95 -173.04     0.002000       0.8606    3.0174    0.3768
   68.59   94.99    1.78     0.002000       0.7866    2.1463    0.5867
  162.54   90.48 -179.13     0.002000       0.5446    3.5063    0.5112
  120.49   90.93    4.01     0.002000       0.7426    3.3113    0.3971
  175.44   86.84  175.76     0.002000       0.7268    2.0677    0.6601
   48.07   88.16   -2.60     0.002000       0.7174    1.9932    0.6943
   56.08   85.01    1.15     0.002000       0.7995    2.1548    0.5748
   59.01   86.80    4.53     0.002000       0.8566    2.3966    0.4805
 -161.76   91.32  179.63     0.002000       0.7183    1.9671    0.7028
  175.60   89.19  179.21     0.002000       0.5336    3.5165    0.5203
 -138.63   89.52 -179.50     0.002000       0.6116    3.5305    0.4517
  157.48   90.37 -179.91     0.002000       0.5347    3.4495    0.5297
  155.17   89.59 -177.91     0.002000       0.6214    3.4932    0.4496
  147.35   85.54 -177.15     0.002000       0.7469    2.0842    0.6370
   60.19   87.29   -6.88     0.002000       0.7878    2.4449    0.5125
  165.61   89.65  171.61     0.002000       0.8010    2.5997    0.4732
  159.06   90.30  179.18     0.002000       0.5375    3.4689    0.5238
  116.72   90.40   -0.76     0.002000       0.5327    3.5387    0.5177
   76.11   89.46   -0.06     0.002000       0.7038    3.4842    0.3974
   60.29   90.47   -6.72     0.002000       0.7222    2.2097    0.6207
   85.64   91.72    7.37     0.002000       0.7447    2.3536    0.5641
   79.69   89.79   -0.24     0.002000       0.7189    3.4752    0.3900
 -160.28   89.91  179.17     0.002000       0.6844    3.5080    0.4059
  119.58   85.46   -0.95     0.002000       0.8459    2.2333    0.5234
 -141.43   89.72  179.01     0.002000       0.5704    3.5262    0.4852
 -159.52   89.72 -179.28     0.002000       0.5385    3.5482    0.5107
 -150.43   91.30  171.92     0.002000       0.8193    2.6465    0.4540
 -169.10   94.79  177.26     0.002000       0.7892    2.1700    0.5782
 -178.07   92.80 -176.40     0.002000       0.7236    2.0365    0.6734
 -159.31   90.40 -179.97     0.002000       0.6342    3.5283    0.4358
   77.04   89.14    4.13     0.002000       0.8069    3.1975    0.3784
  158.81   90.33 -179.11     0.002000       0.5675    3.5290    0.4873
  159.38   89.50 -175.32     0.002000       0.7442    3.2951    0.3984
  114.88   86.92   -6.10     0.002000       0.7402    2.2279    0.6004
  148.21   88.62 -172.02     0.002000       0.8013    2.5883    0.4751
 -174.32   89.05 -172.30     0.002000       0.8648    2.9216    0.3878
 -150.67   91.06 -173.45     0.002000       0.8593    3.0419    0.3741
   83.26   85.68   -1.34     0.002000       0.7437    2.0444    0.6525
  100.46   88.20    7.64     0.002000       0.7699    2.4678    0.5196
   82.14   91.90   -7.49     0.002000       0.7617    2.4310    0.5335
 -156.79   85.58  175.90     0.002000       0.7522    2.1592    0.6100
  163.52   89.87  179.51     0.002000       0.5349    3.4490    0.5295
 -173.09   85.04 -179.24     0.002000       0.8196    2.1880    0.5519
 -166.10   88.68 -178.80     0.002000       0.7195    1.9704    0.7004
   64.38   93.22    5.48     0.002000       0.7305    2.1723    0.6244
  145.95   91.04 -176.54     0.002000       0.7305    3.3493    0.3989
   60.21   89.48    1.27     0.002000       0.5954    3.5206    0.4655
  135.80   90.26  179.54     0.002000       0.6742    3.5125    0.4116
   62.14   90.15    0.70     0.002000       0.5745    3.5401    0.4797
 -156.23   94.46 -179.39     0.002000       0.7499    2.0494    0.6455
   63.88   89.97    0.32     0.002000       0.5432    3.5555    0.5052
  118.84   86.95    5.10     0.002000       0.7257    2.1237    0.6432
  173.89   94.41 -176.13     0.002000       0.7942    2.2348    0.5575
   69.37   85.42    2.52     0.002000       0.7507    2.0872    0.6328
 -163.01   85.31 -179.24     0.002000       0.7552    2.0601    0.6376
 -153.25   88.48  173.34     0.002000       0.7249    2.2056    0.6196
  158.76   89.02 -178.88     0.002000       0.6578    3.4905    0.4248
  127.03   90.85   -4.56     0.002000       0.8107    3.2025    0.3760
 -157.56   90.22  179.61     0.002000       0.6079    3.5378    0.4535
  138.14   89.19  171.96     0.002000       0.7596    2.4365    0.5338
 -166.21   88.87  171.78     0.002000       0.8272    2.6852    0.4429
 -139.39   94.25 -176.35     0.002000       0.8146    2.2662    0.5356
  105.22   89.48   -1.17     0.002000       0.7525    3.4281    0.3777
  111.41   92.37   -7.30     0.002000       0.7845    2.4732    0.5087
  108.67   88.36    7.51     0.002000       0.7489    2.3766    0.5554
   97.11   94.59    3.55     0.002000       0.7944    2.2117    0.5633
 -178.04   93.37  173.77     0.002000       0.7680    2.3133    0.5566
 -145.24   90.36  171.50     0.002000       0.8474    2.7833    0.4165
  176.32   90.08 -171.60     0.002000       0.8347    2.7288    0.4317
  176.73   89.79  179.12     0.002000       0.5379    3.4700    0.5232
 -141.12   90.13  179.97     0.002000       0.7342    3.4735    0.3820
  110.66   86.32   -5.17     0.002000       0.7409    2.1727    0.6155
  147.99   89.30  171.66     0.002000       0.8589    2.8528    0.4004
   97.22   91.01   -4.47     0.002000       0.7615    3.2731    0.3919
   93.59   94.48   -2.87     0.002000       0.7477    2.0995    0.6316
  151.56   89.60 -179.62     0.002000       0.5354    3.4552    0.5280
 -177.63   94.33  177.66     0.002000       0.7475    2.0635    0.6430
  117.97   90.12   -0.92     0.002000       0.5403    3.4826    0.5190
   68.70   85.64    2.28     0.002000       0.7433    2.0616    0.6473
 -132.50   94.09  175.00     0.002000       0.7790    2.2565    0.5628
 -155.85   90.19 -174.02     0.002000       0.7168    2.1236    0.6513
 -152.38   89.50  174.89     0.002000       0.7571    3.2672    0.3950
  144.82   89.13  174.78     0.002000       0.8369    3.1324    0.3725
   60.55   90.94   -7.83     0.002000       0.7566    2.4347    0.5363
 -171.37   89.81 -173.49     0.002000       0.8205    3.1210    0.3819
  147.88   89.46  171.64     0.002000       0.8017    2.6001    0.4728
   52.34   91.09   -3.72     0.002000       0.7589    3.3078    0.3888
 -158.73   88.87  174.10     0.002000       0.7180    2.1167    0.6524
   77.00   93.11    6.48     0.002000       0.7893    2.4008    0.5211
 -157.12   88.75  173.17     0.002000       0.8870    2.7747    0.3985
  122.02   90.87   -8.15     0.002000       0.7898    2.5560    0.4885
  167.14   90.69  179.15     0.002000       0.5340    3.4971    0.5228
 -172.24   88.51  178.33     0.002000       0.7200    1.9750    0.6983
  132.79   87.24   -4.65     0.002000       0.8791    2.4671    0.4542
  160.63   86.02 -174.84     0.002000       0.7519    2.2077    0.5966
 -150.18   90.39  178.97     0.002000       0.5636    3.5274    0.4908
  159.49   89.45 -179.13     0.002000       0.6005    3.5318    0.4599
 -163.89   89.67 -174.77     0.002000       0.7670    3.2461    0.3925
  156.83   93.05  173.34     0.002000       0.7907    2.4025    0.5199
 -145.81   89.64  172.68     0.002000       0.7297    2.2727    0.5969
  144.77   89.98 -179.01     0.002000       0.5298    3.4930    0.5276
  179.44   93.96 -175.03     0.002000       0.7536    2.2103    0.5945
  110.41   89.87    0.81     0.002000       0.6202    3.5222    0.4465
  123.96   90.26    5.00     0.002000       0.7528    3.2704    0.3969
 -138.31   89.84  179.77     0.002000       0.5677    3.5485    0.4842
 -147.42   87.57 -174.21     0.002000       0.8558    2.5242    0.4558
   77.58   89.78   -0.04     0.002000       0.5687    3.5496    0.4832
   69.82   94.33   -1.14     0.002000       0.7439    2.0428    0.6529
 -139.53   87.18 -173.14     0.002000       0.7665    2.3815    0.5413
 -154.85   90.73 -172.21     0.002000       0.8612    2.9255    0.3889
  103.69   89.60   -8.39     0.002000       0.8524    2.8254    0.4076
   78.41   88.32   -5.47     0.002000       0.7176    2.1088    0.6553
 -157.81   91.96 -179.58     0.002000       0.7209    1.9738    0.6978
 -146.37   90.61 -171.77     0.002000       0.8228    2.6811    0.4461
  172.38   89.98 -179.82     0.002000       0.5602    3.5573    0.4895
   72.48   89.84   -7.28     0.002000       0.7315    2.2912    0.5905
   65.05   91.19    7.90     0.002000       0.8678    2.8377    0.3983
   47.22   90.92    8.22     0.002000       0.8197    2.6615    0.4512
  145.72   89.20 -176.89     0.002000       0.6795    3.4125    0.4210
   63.43   87.83   -4.93     0.002000       0.7180    2.0858    0.6622
  162.89   85.20  176.72     0.002000       0.7731    2.1609    0.5929
   98.98   89.89   -0.88     0.002000       0.6806    3.4964    0.4096
  163.55   89.20 -179.31     0.002000       0.5313    3.5152    0.5227
  151.82   92.80 -173.42     0.002000       0.8150    2.4644    0.4911
   86.54   87.55   -6.13     0.002000       0.8461    2.5193    0.4621
  111.93   93.03   -6.61     0.002000       0.7726    2.3749    0.5386
  169.74   86.26 -176.92     0.002000       0.7339    2.0475    0.6603
   90.01   90.03    0.05     0.002000       0.5673    3.5502    0.4844
  100.50   91.13    8.08     0.002000       0.8450    2.7472    0.4233
 -139.92   86.03 -175.00     0.002000       0.7490    2.1985    0.6014
   88.94   90.00   -8.36     0.002000       0.8226    2.6821    0.4460
   86.62   89.60    0.02     0.002000       0.6172    3.5288    0.4478
  177.88   94.58 -176.82     0.002000       0.8003    2.2160    0.5580
   68.16   90.10   -7.75     0.002000       0.7462    2.3862    0.5552
  149.97   88.76 -172.11     0.002000       0.7597    2.4354    0.5339
   98.45   88.71   -5.28     0.002000       0.7168    2.0834    0.6642
 -171.40   93.31 -177.19     0.002000       0.7280    2.0297    0.6716
  133.37   90.18    0.87     0.002000       0.5378    3.4822    0.5214
  169.52   91.63  172.35     0.002000       0.7526    2.3826    0.5512
  131.90   92.78    5.70     0.002000       0.8484    2.4659    0.4711
   72.38   89.91    0.25     0.002000       0.5614    3.5531    0.4891
  137.10   90.84  179.51     0.002000       0.5340    3.4910    0.5238
 -174.74   92.83  175.43     0.002000       0.7261    2.0730    0.6590
   84.66   89.35   -0.87     0.002000       0.5369    3.5160    0.5171
  142.56   91.65 -172.37     0.002000       0.7539    2.3938    0.5476
   82.61   89.63    0.36     0.002000       0.5774    3.5399    0.4773
  137.31   89.93 -179.52     0.002000       0.5941    3.5426    0.4634
  124.12   89.82   -0.29     0.002000       0.5824    3.5434    0.4727
  101.80   91.20   -7.72     0.002000       0.8727    2.8658    0.3919
   96.82   90.24   -0.61     0.002000       0.5435    3.5461    0.5063
 -172.12   92.89  176.59     0.002000       0.8933    2.4307    0.4537
 -149.13   90.19  179.70     0.002000       0.7415    3.4658    0.3790
  136.20   90.19 -179.04     0.002000       0.5305    3.5325    0.5208
 -160.52   86.68 -176.50     0.002000       0.7281    2.0462    0.6659
  167.13   87.40 -178.48     0.002000       0.7272    1.9880    0.6868
   59.97   89.88    0.69     0.002000       0.6255    3.5241    0.4424
